#time,accel_x,accel_y,accel_z
4084.419639,-2068.457845,370.102971,9252.574275
4084.419954,-1455.581446,148.041188,9178.553681
4084.420270,-1225.752797,222.061783,9030.512492
4084.420585,-919.314598,296.082377,9030.512492
4084.420901,-842.705048,518.144159,9030.512492
4084.421216,-459.657299,-0.000000,9252.574275
4084.421532,-459.657299,222.061783,8882.471304
4084.421847,-306.438199,222.061783,8512.368333
4084.422162,-306.438199,-0.000000,8586.388927
4084.422478,-842.705048,-222.061783,8956.491898
4084.422793,-919.314598,-296.082377,8882.471304
4084.423109,-1149.143247,-370.102971,9178.553681
4084.423424,-1302.362347,-666.185348,9178.553681
4084.423740,-1302.362347,-814.226536,9474.636058
4084.424055,-1072.533697,-814.226536,9474.636058
4084.424370,-766.095498,-518.144159,9770.718434
4084.424686,-383.047749,-888.247130,9844.739029
4084.425001,306.438199,-666.185348,9104.533087
4084.425317,766.095498,-444.123565,9104.533087
4084.425632,766.095498,-0.000000,8438.347739
4084.425948,1072.533697,444.123565,8512.368333
4084.426263,919.314598,-0.000000,7994.224174
4084.426578,1072.533697,-444.123565,8216.285956
4084.426894,919.314598,-666.185348,8512.368333
4084.427209,612.876398,-1258.350101,9178.553681
4084.427525,0.000000,-888.247130,9770.718434
4084.427840,76.609550,-814.226536,9474.636058
4084.428156,76.609550,-1036.288319,9918.759623
4084.428471,153.219100,-814.226536,9844.739029
4084.428786,842.705048,-962.267725,9696.697840
4084.429102,842.705048,-296.082377,9474.636058
4084.429417,995.924147,-296.082377,9474.636058
4084.429733,766.095498,-0.000000,9474.636058
4084.430048,1072.533697,370.102971,9474.636058
4084.430364,766.095498,592.164754,9844.739029
4084.430679,0.000000,518.144159,9696.697840
4084.430994,0.000000,592.164754,9770.718434
4084.431310,0.000000,148.041188,9992.780217
4084.431625,-229.828649,148.041188,10288.862594
4084.431941,-689.485948,-0.000000,10658.965565
4084.432256,-689.485948,-0.000000,10362.883188
4084.432572,-536.266849,444.123565,10066.800811
4084.432887,-383.047749,518.144159,10362.883188
4084.433202,-153.219100,444.123565,10066.800811
4084.433518,-153.219100,1036.288319,9918.759623
4084.433833,0.000000,1258.350101,9474.636058
4084.434149,0.000000,1702.473667,9400.615463
4084.434464,0.000000,1702.473667,9400.615463
4084.434780,0.000000,1480.411884,9696.697840
4084.435095,0.000000,1406.391290,9770.718434
4084.435410,76.609550,1036.288319,9844.739029
4084.435726,0.000000,1110.308913,9918.759623
4084.436041,-229.828649,962.267725,10214.842000
4084.436357,0.000000,1110.308913,10066.800811
4084.436672,-229.828649,814.226536,9770.718434
4084.436988,0.000000,1036.288319,9770.718434
4084.437303,612.876398,1036.288319,9400.615463
4084.437618,229.828649,1036.288319,9252.574275
4084.437934,306.438199,666.185348,9622.677246
4084.438249,306.438199,1110.308913,9474.636058
4084.438565,459.657299,740.205942,9326.594869
4084.438880,459.657299,444.123565,9622.677246
4084.439196,842.705048,518.144159,9844.739029
4084.439511,766.095498,-0.000000,10140.821405
4084.439826,612.876398,296.082377,9474.636058
4084.440142,995.924147,666.185348,9326.594869
4084.440457,612.876398,222.061783,9770.718434
4084.440773,306.438199,-0.000000,9474.636058
4084.441088,612.876398,-0.000000,9474.636058
4084.441404,536.266849,-444.123565,9696.697840
4084.441719,459.657299,-370.102971,9696.697840
4084.442034,306.438199,-444.123565,9844.739029
4084.442350,229.828649,-148.041188,9844.739029
4084.442665,459.657299,-296.082377,10140.821405
4084.442981,459.657299,-592.164754,9474.636058
4084.443296,459.657299,-370.102971,9474.636058
4084.443612,536.266849,-296.082377,9918.759623
4084.443927,306.438199,-222.061783,9844.739029
4084.444242,0.000000,-148.041188,9548.656652
4084.444558,76.609550,-592.164754,9474.636058
4084.444873,76.609550,-444.123565,9548.656652
4084.445189,0.000000,-296.082377,9474.636058
4084.445504,0.000000,-444.123565,9400.615463
4084.445820,-153.219100,-222.061783,9474.636058
4084.446135,-459.657299,-740.205942,9178.553681
4084.446450,-153.219100,-370.102971,9326.594869
4084.446766,0.000000,-444.123565,9252.574275
4084.447081,-459.657299,-592.164754,9474.636058
4084.447397,-306.438199,-444.123565,9104.533087
4084.447712,-459.657299,-518.144159,9104.533087
4084.448028,-306.438199,-740.205942,9178.553681
4084.448343,-536.266849,-370.102971,9474.636058
4084.448658,-459.657299,-296.082377,9178.553681
4084.448974,-229.828649,-666.185348,9326.594869
4084.449289,-229.828649,-518.144159,9474.636058
4084.449605,153.219100,-74.020594,9474.636058
4084.449920,0.000000,-444.123565,9326.594869
4084.450236,76.609550,-74.020594,9622.677246
4084.450551,383.047749,-74.020594,9030.512492
4084.450866,0.000000,-222.061783,9474.636058
4084.451182,842.705048,-0.000000,9992.780217
4084.451497,0.000000,-222.061783,9474.636058
4084.451813,0.000000,-296.082377,9696.697840
4084.452128,536.266849,-0.000000,9548.656652
4084.452444,383.047749,-222.061783,9548.656652
4084.452759,306.438199,-592.164754,9844.739029
4084.453074,459.657299,-0.000000,9918.759623
4084.453390,383.047749,-0.000000,9992.780217
4084.453705,153.219100,-0.000000,9622.677246
4084.454021,919.314598,296.082377,9622.677246
4084.454336,459.657299,518.144159,10140.821405
4084.454652,76.609550,518.144159,10140.821405
4084.454967,229.828649,592.164754,10066.800811
4084.455282,76.609550,592.164754,9918.759623
4084.455598,153.219100,518.144159,10140.821405
4084.455913,-229.828649,370.102971,10066.800811
4084.456229,-306.438199,592.164754,10214.842000
4084.456544,0.000000,814.226536,9770.718434
4084.456860,0.000000,740.205942,9844.739029
4084.457175,0.000000,814.226536,10066.800811
4084.457490,0.000000,740.205942,9844.739029
4084.457806,0.000000,814.226536,9844.739029
4084.458121,0.000000,740.205942,9844.739029
4084.458437,0.000000,740.205942,9992.780217
4084.458752,76.609550,888.247130,9770.718434
4084.459068,153.219100,592.164754,9474.636058
4084.459383,0.000000,814.226536,9474.636058
4084.459698,0.000000,814.226536,9696.697840
4084.460014,0.000000,592.164754,9622.677246
4084.460329,229.828649,740.205942,9474.636058
4084.460645,153.219100,814.226536,9622.677246
4084.460960,0.000000,666.185348,9474.636058
4084.461276,76.609550,666.185348,9474.636058
4084.461591,0.000000,666.185348,9474.636058
4084.461906,0.000000,444.123565,9548.656652
4084.462222,76.609550,296.082377,9178.553681
4084.462537,153.219100,222.061783,9252.574275
4084.462853,0.000000,-0.000000,9474.636058
4084.463168,76.609550,148.041188,9326.594869
4084.463483,383.047749,-296.082377,9474.636058
4084.463799,0.000000,-0.000000,9548.656652
4084.464114,76.609550,148.041188,9844.739029
4084.464430,153.219100,-0.000000,9252.574275
4084.464745,306.438199,-0.000000,9400.615463
4084.465060,0.000000,-148.041188,9918.759623
4084.465376,153.219100,-0.000000,9622.677246
4084.465691,76.609550,-148.041188,9548.656652
4084.466007,229.828649,-0.000000,9622.677246
4084.466322,459.657299,-370.102971,9622.677246
4084.466637,459.657299,-370.102971,9622.677246
4084.466953,76.609550,-296.082377,9548.656652
4084.467268,229.828649,-222.061783,9474.636058
4084.467584,229.828649,-444.123565,9474.636058
4084.467899,306.438199,-296.082377,9622.677246
4084.468214,0.000000,-74.020594,9030.512492
4084.468530,0.000000,-592.164754,9178.553681
4084.468845,76.609550,-370.102971,9548.656652
4084.469161,153.219100,-370.102971,9252.574275
4084.469476,383.047749,-148.041188,9252.574275
4084.469791,0.000000,-148.041188,9326.594869
4084.470107,0.000000,-370.102971,9474.636058
4084.470422,0.000000,-222.061783,9400.615463
4084.470738,0.000000,-148.041188,9400.615463
4084.471053,0.000000,-74.020594,9178.553681
4084.471368,0.000000,148.041188,9474.636058
4084.471684,0.000000,-0.000000,9252.574275
4084.471999,0.000000,-222.061783,9178.553681
4084.472315,0.000000,148.041188,9252.574275
4084.472630,0.000000,-148.041188,9252.574275
4084.472945,0.000000,-0.000000,9104.533087
4084.473261,-229.828649,-0.000000,9474.636058
4084.473576,76.609550,-222.061783,9400.615463
4084.473892,76.609550,222.061783,9474.636058
4084.474207,0.000000,222.061783,9400.615463
4084.474522,306.438199,-0.000000,9474.636058
4084.474838,0.000000,148.041188,9696.697840
4084.475153,76.609550,222.061783,9474.636058
4084.475469,229.828649,592.164754,9548.656652
4084.475784,383.047749,148.041188,9992.780217
4084.476099,0.000000,370.102971,9844.739029
4084.476415,0.000000,666.185348,9992.780217
4084.476730,383.047749,592.164754,10066.800811
4084.477046,-153.219100,444.123565,10066.800811
4084.477361,306.438199,444.123565,10288.862594
4084.477676,153.219100,370.102971,9992.780217
4084.477992,0.000000,444.123565,10140.821405
4084.478307,0.000000,592.164754,9992.780217
4084.478623,0.000000,518.144159,10066.800811
4084.478938,306.438199,666.185348,9992.780217
4084.479253,0.000000,592.164754,9992.780217
4084.479569,76.609550,814.226536,10066.800811
4084.479884,76.609550,666.185348,9474.636058
4084.480200,383.047749,666.185348,9622.677246
4084.480515,0.000000,592.164754,9992.780217
4084.480830,229.828649,592.164754,10066.800811
4084.481146,306.438199,666.185348,9918.759623
4084.481461,306.438199,518.144159,9548.656652
4084.481777,766.095498,-0.000000,9770.718434
4084.482092,76.609550,666.185348,9622.677246
4084.482407,76.609550,740.205942,9622.677246
4084.482723,306.438199,-0.000000,9918.759623
4084.483038,306.438199,370.102971,9622.677246
4084.483354,153.219100,148.041188,9400.615463
4084.483669,153.219100,370.102971,9474.636058
4084.483984,0.000000,148.041188,9770.718434
4084.484300,229.828649,-0.000000,9104.533087
4084.484615,229.828649,370.102971,9474.636058
4084.484931,229.828649,518.144159,9992.780217
4084.485246,153.219100,444.123565,9474.636058
4084.485561,76.609550,444.123565,9474.636058
4084.485877,306.438199,-0.000000,9252.574275
4084.486192,766.095498,222.061783,9326.594869
4084.486508,459.657299,-0.000000,9696.697840
4084.486823,153.219100,-0.000000,9474.636058
4084.487138,0.000000,-222.061783,9548.656652
4084.487454,0.000000,-74.020594,9474.636058
4084.487769,0.000000,-222.061783,9548.656652
4084.488085,0.000000,-222.061783,9474.636058
4084.488400,0.000000,-0.000000,9400.615463
4084.488715,0.000000,-148.041188,9252.574275
4084.489031,0.000000,-222.061783,9400.615463
4084.489346,0.000000,-148.041188,9770.718434
4084.489662,0.000000,-0.000000,9474.636058
4084.489977,0.000000,-148.041188,9696.697840
4084.490292,153.219100,-222.061783,9548.656652
4084.490608,0.000000,-222.061783,9400.615463
4084.490923,76.609550,-222.061783,9252.574275
4084.491239,0.000000,-444.123565,9622.677246
4084.491554,76.609550,-370.102971,9622.677246
4084.491869,0.000000,-296.082377,9400.615463
4084.492185,153.219100,-444.123565,9400.615463
4084.492500,76.609550,-222.061783,9548.656652
4084.492816,229.828649,-222.061783,9474.636058
4084.493131,76.609550,-222.061783,9326.594869
4084.493446,306.438199,-518.144159,9474.636058
4084.493762,0.000000,-148.041188,9474.636058
4084.494077,612.876398,-148.041188,8956.491898
4084.494393,229.828649,-148.041188,9326.594869
4084.494708,153.219100,-74.020594,9326.594869
4084.495023,383.047749,-222.061783,9400.615463
4084.495339,612.876398,-444.123565,9400.615463
4084.495654,306.438199,-0.000000,9548.656652
4084.495970,0.000000,444.123565,9622.677246
4084.496285,0.000000,148.041188,9474.636058
4084.496600,153.219100,-0.000000,9548.656652
4084.496916,0.000000,-0.000000,9918.759623
4084.497231,459.657299,-0.000000,9548.656652
4084.497547,0.000000,-0.000000,9844.739029
4084.497862,0.000000,148.041188,9622.677246
4084.498177,76.609550,296.082377,9696.697840
4084.498493,459.657299,148.041188,9548.656652
4084.498808,0.000000,-0.000000,9918.759623
4084.499124,-229.828649,444.123565,9548.656652
4084.499439,0.000000,592.164754,9326.594869
4084.499754,0.000000,444.123565,9622.677246
4084.500070,153.219100,370.102971,10066.800811
4084.500385,0.000000,296.082377,9548.656652
4084.500701,0.000000,666.185348,9770.718434
4084.501016,0.000000,148.041188,9622.677246
4084.501331,0.000000,222.061783,9474.636058
4084.501647,0.000000,592.164754,9696.697840
4084.501962,-229.828649,370.102971,9992.780217
4084.502278,0.000000,222.061783,9992.780217
4084.502593,229.828649,370.102971,9548.656652
4084.502908,153.219100,222.061783,9622.677246
4084.503224,0.000000,-0.000000,9844.739029
4084.503539,0.000000,518.144159,9992.780217
4084.503855,0.000000,296.082377,9622.677246
4084.504170,153.219100,296.082377,10066.800811
4084.504485,383.047749,-0.000000,9696.697840
4084.504801,0.000000,222.061783,9400.615463
4084.505116,153.219100,518.144159,9622.677246
4084.505432,76.609550,-0.000000,9770.718434
4084.505747,76.609550,222.061783,9548.656652
4084.506062,0.000000,222.061783,9770.718434
4084.506378,153.219100,222.061783,9918.759623
4084.506693,306.438199,444.123565,9622.677246
4084.507009,76.609550,370.102971,9548.656652
4084.507324,153.219100,222.061783,9548.656652
4084.507639,536.266849,222.061783,9326.594869
4084.507955,0.000000,148.041188,9770.718434
4084.508270,0.000000,148.041188,9696.697840
4084.508586,0.000000,222.061783,9474.636058
4084.508901,0.000000,-0.000000,9622.677246
4084.509216,0.000000,-0.000000,9548.656652
4084.509532,0.000000,-370.102971,10140.821405
4084.509847,0.000000,-0.000000,9548.656652
4084.510163,0.000000,-0.000000,9252.574275
4084.510478,0.000000,-0.000000,9548.656652
4084.510793,-229.828649,-0.000000,9474.636058
4084.511109,0.000000,-0.000000,9474.636058
4084.511424,0.000000,-0.000000,9622.677246
4084.511740,0.000000,-74.020594,9400.615463
4084.512055,0.000000,-222.061783,9178.553681
4084.512370,0.000000,-74.020594,9326.594869
4084.512686,-306.438199,-148.041188,9918.759623
4084.513001,-153.219100,-0.000000,9474.636058
4084.513317,0.000000,-74.020594,9326.594869
4084.513632,153.219100,-148.041188,9178.553681
4084.513947,76.609550,-518.144159,9474.636058
4084.514263,76.609550,-0.000000,9474.636058
4084.514578,0.000000,-0.000000,9252.574275
4084.514894,76.609550,-74.020594,9474.636058
4084.515209,383.047749,-518.144159,9252.574275
4084.515524,229.828649,-370.102971,9326.594869
4084.515840,0.000000,-148.041188,9622.677246
4084.516155,0.000000,-148.041188,9622.677246
4084.516471,306.438199,-0.000000,9400.615463
4084.516786,306.438199,-0.000000,9474.636058
4084.517101,76.609550,-0.000000,9622.677246
4084.517417,153.219100,-0.000000,9252.574275
4084.517732,229.828649,-0.000000,9474.636058
4084.518048,0.000000,-74.020594,9474.636058
4084.518363,536.266849,-0.000000,9474.636058
4084.518678,0.000000,-0.000000,9844.739029
4084.518994,229.828649,370.102971,9474.636058
4084.519309,76.609550,-0.000000,9770.718434
4084.519625,0.000000,296.082377,9770.718434
4084.519940,153.219100,-0.000000,9474.636058
4084.520255,76.609550,148.041188,10066.800811
4084.520571,0.000000,370.102971,9622.677246
4084.520886,229.828649,148.041188,9474.636058
4084.521202,306.438199,370.102971,9918.759623
4084.521517,0.000000,518.144159,9696.697840
4084.521832,0.000000,444.123565,9844.739029
4084.522148,0.000000,740.205942,9622.677246
4084.522463,0.000000,148.041188,9548.656652
4084.522779,0.000000,148.041188,9474.636058
4084.523094,0.000000,296.082377,9474.636058
4084.523409,0.000000,444.123565,9844.739029
4084.523725,0.000000,518.144159,9548.656652
4084.524040,0.000000,370.102971,9474.636058
4084.524356,0.000000,444.123565,9474.636058
4084.524671,229.828649,444.123565,9770.718434
4084.524986,0.000000,888.247130,9992.780217
4084.525302,306.438199,666.185348,9326.594869
4084.525617,459.657299,370.102971,9622.677246
4084.525933,153.219100,370.102971,9474.636058
4084.526248,76.609550,-0.000000,9252.574275
4084.526563,153.219100,370.102971,9696.697840
4084.526879,76.609550,296.082377,9622.677246
4084.527194,76.609550,296.082377,9622.677246
4084.527510,306.438199,-0.000000,9548.656652
4084.527825,229.828649,222.061783,9770.718434
4084.528140,306.438199,518.144159,9474.636058
4084.528456,153.219100,518.144159,9770.718434
4084.528771,0.000000,222.061783,9548.656652
4084.529087,612.876398,222.061783,9696.697840
4084.529402,153.219100,370.102971,9844.739029
4084.529717,76.609550,222.061783,9548.656652
4084.530033,76.609550,-0.000000,10066.800811
4084.530348,0.000000,-0.000000,9770.718434
4084.530664,153.219100,-0.000000,9696.697840
4084.530979,0.000000,-0.000000,9770.718434
4084.531294,-76.609550,-0.000000,9474.636058
4084.531610,0.000000,296.082377,9548.656652
4084.531925,153.219100,148.041188,9548.656652
4084.532241,76.609550,-74.020594,9918.759623
4084.532556,76.609550,-0.000000,9622.677246
4084.532871,0.000000,-0.000000,9992.780217
4084.533187,0.000000,-74.020594,9696.697840
4084.533502,76.609550,-444.123565,9326.594869
4084.533818,153.219100,-518.144159,9326.594869
4084.534133,0.000000,-148.041188,9844.739029
4084.534448,0.000000,-74.020594,9400.615463
4084.534764,76.609550,-0.000000,9326.594869
4084.535079,536.266849,-222.061783,9400.615463
4084.535395,153.219100,-74.020594,9474.636058
4084.535710,229.828649,-0.000000,9474.636058
4084.536025,0.000000,-0.000000,9474.636058
4084.536341,0.000000,-74.020594,9474.636058
4084.536656,229.828649,-296.082377,9326.594869
4084.536972,76.609550,-370.102971,9326.594869
4084.537287,229.828649,-0.000000,9548.656652
4084.537602,0.000000,-222.061783,9696.697840
4084.537918,536.266849,-0.000000,9474.636058
4084.538233,306.438199,-0.000000,9548.656652
4084.538549,76.609550,-0.000000,9474.636058
4084.538864,229.828649,-0.000000,9548.656652
4084.539179,306.438199,-0.000000,9326.594869
4084.539495,76.609550,-0.000000,9178.553681
4084.539810,229.828649,-0.000000,9400.615463
4084.540126,76.609550,148.041188,9696.697840
4084.540441,76.609550,-0.000000,9548.656652
4084.540756,153.219100,-0.000000,9696.697840
4084.541072,0.000000,592.164754,9696.697840
4084.541387,229.828649,-0.000000,9622.677246
4084.541703,229.828649,296.082377,9770.718434
4084.542018,0.000000,-0.000000,9548.656652
4084.542333,153.219100,222.061783,9918.759623
4084.542649,-306.438199,222.061783,9844.739029
4084.542964,0.000000,-0.000000,9474.636058
4084.543280,0.000000,-0.000000,9770.718434
4084.543595,0.000000,222.061783,9992.780217
4084.543910,153.219100,148.041188,9696.697840
4084.544226,0.000000,370.102971,9474.636058
4084.544541,229.828649,296.082377,9548.656652
4084.544857,0.000000,370.102971,9918.759623
4084.545172,153.219100,222.061783,9474.636058
4084.545487,153.219100,296.082377,9622.677246
4084.545803,536.266849,-0.000000,9548.656652
4084.546118,76.609550,-0.000000,9696.697840
4084.546434,0.000000,222.061783,9548.656652
4084.546749,76.609550,370.102971,9474.636058
4084.547064,76.609550,370.102971,9844.739029
4084.547380,306.438199,-0.000000,9548.656652
4084.547695,536.266849,-0.000000,9252.574275
4084.548011,0.000000,370.102971,9474.636058
4084.548326,153.219100,296.082377,9474.636058
4084.548641,229.828649,444.123565,9622.677246
4084.548957,766.095498,370.102971,9918.759623
4084.549272,306.438199,370.102971,9844.739029
4084.549588,0.000000,444.123565,9622.677246
4084.549903,229.828649,444.123565,9474.636058
4084.550218,153.219100,370.102971,9474.636058
4084.550534,459.657299,-0.000000,9474.636058
4084.550849,0.000000,370.102971,9474.636058
4084.551165,153.219100,74.020594,9696.697840
4084.551480,0.000000,-0.000000,9548.656652
4084.551795,76.609550,-0.000000,9548.656652
4084.552111,76.609550,-0.000000,9548.656652
4084.552426,0.000000,296.082377,9770.718434
4084.552742,0.000000,-0.000000,9474.636058
4084.553057,0.000000,-0.000000,9474.636058
4084.553372,0.000000,-0.000000,9474.636058
4084.553688,153.219100,-0.000000,9474.636058
4084.554003,153.219100,222.061783,9622.677246
4084.554319,153.219100,444.123565,9474.636058
4084.554634,76.609550,-0.000000,9474.636058
4084.554949,459.657299,-0.000000,9548.656652
4084.555265,153.219100,-148.041188,9474.636058
4084.555580,153.219100,-0.000000,9622.677246
4084.555896,0.000000,-74.020594,9474.636058
4084.556211,153.219100,-0.000000,9400.615463
4084.556526,0.000000,-0.000000,9474.636058
4084.556842,0.000000,-74.020594,9326.594869
4084.557157,306.438199,-0.000000,9474.636058
4084.557473,76.609550,222.061783,9474.636058
4084.557788,306.438199,-0.000000,9474.636058
4084.558103,0.000000,-148.041188,9474.636058
4084.558419,229.828649,-222.061783,9474.636058
4084.558734,0.000000,-74.020594,9622.677246
4084.559050,-76.609550,-0.000000,9474.636058
4084.559365,153.219100,-74.020594,9474.636058
4084.559680,229.828649,-148.041188,9400.615463
4084.559996,76.609550,-148.041188,9696.697840
4084.560311,153.219100,222.061783,9844.739029
4084.560627,0.000000,148.041188,9474.636058
4084.560942,153.219100,296.082377,9400.615463
4084.561257,383.047749,-0.000000,9548.656652
4084.561573,76.609550,296.082377,9622.677246
4084.561888,0.000000,-0.000000,9474.636058
4084.562204,0.000000,-0.000000,9474.636058
4084.562519,0.000000,296.082377,9548.656652
4084.562834,0.000000,-0.000000,9474.636058
4084.563150,0.000000,444.123565,9474.636058
4084.563465,0.000000,-0.000000,9326.594869
4084.563781,0.000000,-0.000000,9548.656652
4084.564096,0.000000,296.082377,9696.697840
4084.564411,76.609550,370.102971,9770.718434
4084.564727,0.000000,296.082377,9474.636058
4084.565042,0.000000,370.102971,9770.718434
4084.565358,0.000000,-0.000000,9400.615463
4084.565673,0.000000,222.061783,9622.677246
4084.565988,383.047749,222.061783,9770.718434
4084.566304,0.000000,370.102971,9548.656652
4084.566619,229.828649,222.061783,9696.697840
4084.566935,76.609550,296.082377,9548.656652
4084.567250,229.828649,222.061783,9770.718434
4084.567565,0.000000,-0.000000,9770.718434
4084.567880,0.000000,370.102971,9844.739029
4084.568195,0.000000,222.061783,9696.697840
4084.568511,153.219100,370.102971,9622.677246
4084.568826,0.000000,-0.000000,9770.718434
4084.569141,612.876398,-0.000000,9622.677246
4084.569456,0.000000,666.185348,9474.636058
4084.569771,-612.876398,444.123565,9696.697840
4084.570086,-306.438199,222.061783,9992.780217
4084.570401,-306.438199,-0.000000,10066.800811
4084.570716,0.000000,222.061783,9992.780217
4084.571032,-229.828649,-0.000000,10066.800811
4084.571347,-229.828649,296.082377,9992.780217
4084.571662,0.000000,518.144159,9696.697840
4084.571977,153.219100,592.164754,9622.677246
4084.572292,0.000000,666.185348,9474.636058
4084.572607,306.438199,1036.288319,9178.553681
4084.572922,0.000000,1036.288319,9030.512492
4084.573238,-536.266849,962.267725,8438.347739
4084.573553,-1072.533697,888.247130,9030.512492
4084.573868,-1378.971896,740.205942,9326.594869
4084.574183,-2221.676944,296.082377,9844.739029
4084.574498,-2528.115143,-0.000000,10362.883188
4084.574813,-2681.334243,-148.041188,10362.883188
4084.575128,-2681.334243,-0.000000,9918.759623
4084.575443,-2451.505594,370.102971,10288.862594
4084.575759,-2451.505594,962.267725,9696.697840
4084.576074,-2145.067394,1258.350101,9474.636058
4084.576389,-1608.800546,1776.494261,8956.491898
4084.576704,-1225.752797,2146.597232,8586.388927
4084.577019,-1685.410096,2738.761985,8512.368333
4084.577334,-2068.457845,2442.679609,8438.347739
4084.577649,-2604.724693,2368.659014,8512.368333
4084.577965,-2987.772442,1998.556043,8882.471304
4084.578280,-3294.210641,1406.391290,9178.553681
4084.578595,-3370.820191,962.267725,9474.636058
4084.578910,-3524.039291,1036.288319,9844.739029
4084.579225,-3294.210641,1258.350101,9622.677246
4084.579540,-3907.087040,1702.473667,10066.800811
4084.579855,-3524.039291,2368.659014,9696.697840
4084.580170,-2987.772442,3478.967927,9696.697840
4084.580486,-2145.067394,4219.173869,8882.471304
4084.580801,-1302.362347,4737.318029,8956.491898
4084.581116,-1455.581446,5181.441594,9030.512492
4084.581431,-1455.581446,5551.544565,9400.615463
4084.581746,-2298.286494,4959.379811,9030.512492
4084.582061,-2298.286494,5551.544565,9030.512492
4084.582376,-2604.724693,4885.359217,9252.574275
4084.582692,-3294.210641,4367.215058,9918.759623
4084.583007,-3217.601092,3923.091493,10362.883188
4084.583322,-3524.039291,3627.009116,10955.047942
4084.583637,-3600.648841,3552.988522,11029.068536
4084.583952,-2911.162892,3552.988522,10807.006753
4084.584267,-2374.896044,3849.070898,10362.883188
4084.584582,-1302.362347,4589.276840,10436.903782
4084.584897,-153.219100,4959.379811,9918.759623
4084.585213,383.047749,5477.523971,9104.533087
4084.585528,689.485948,5995.668130,8512.368333
4084.585843,536.266849,6217.729913,8734.430116
4084.586158,306.438199,5921.647536,8660.409521
4084.586473,-306.438199,5403.503377,9400.615463
4084.586788,-1149.143247,4293.194464,10288.862594
4084.587103,-2221.676944,3182.885551,11029.068536
4084.587418,-2834.553343,2516.700203,11769.274478
4084.587734,-3064.381992,2368.659014,12065.356855
4084.588049,-3524.039291,2146.597232,12139.377449
4084.588364,-2987.772442,2368.659014,12065.356855
4084.588679,-2604.724693,2220.617826,11399.171507
4084.588994,-2068.457845,2368.659014,10510.924376
4084.589309,-1455.581446,3701.029710,10140.821405
4084.589624,-536.266849,3627.009116,9326.594869
4084.589940,0.000000,4071.132681,8808.450710
4084.590255,0.000000,3552.988522,9400.615463
4084.590570,-229.828649,2886.803174,9252.574275
4084.590885,0.000000,1702.473667,9474.636058
4084.591200,-766.095498,1258.350101,9548.656652
4084.591515,-1225.752797,518.144159,9548.656652
4084.591830,-1685.410096,-0.000000,9992.780217
4084.592145,-2451.505594,-0.000000,9474.636058
4084.592461,-2834.553343,-0.000000,9326.594869
4084.592776,-2681.334243,444.123565,8882.471304
4084.593091,-2987.772442,666.185348,8364.327145
4084.593406,-3064.381992,592.164754,8882.471304
4084.593721,-2911.162892,296.082377,9104.533087
4084.594036,-2987.772442,740.205942,8882.471304
4084.594351,-3217.601092,592.164754,9326.594869
4084.594667,-2834.553343,74.020594,10140.821405
4084.594982,-2221.676944,-296.082377,10510.924376
4084.595297,-1838.629195,-370.102971,10214.842000
4084.595612,-995.924147,-148.041188,10436.903782
4084.595927,-383.047749,740.205942,9844.739029
4084.596242,-229.828649,888.247130,9030.512492
4084.596557,-153.219100,1332.370696,7772.162391
4084.596872,-536.266849,1480.411884,7179.997637
4084.597188,-919.314598,1628.453072,6957.935855
4084.597503,-1991.848295,962.267725,7105.977043
4084.597818,-2681.334243,-370.102971,7550.100608
4084.598133,-3294.210641,-1406.391290,8512.368333
4084.598448,-4213.525239,-2294.638420,10140.821405
4084.598763,-4060.306139,-3404.947333,11473.192101
4084.599078,-3370.820191,-3404.947333,12065.356855
4084.599394,-1991.848295,-3182.885551,12361.439231
4084.599709,-229.828649,-2442.679609,11547.212695
4084.600024,1072.533697,-740.205942,9770.718434
4084.600339,2068.457845,962.267725,8734.430116
4084.600654,2834.553343,3256.906145,7254.018232
4084.600969,3217.601092,4145.153275,5921.647536
4084.601284,2911.162892,4737.318029,5255.462188
4084.601599,1532.190996,4367.215058,4663.297435
4084.601915,-689.485948,2146.597232,7179.997637
4084.602230,-2604.724693,-222.061783,9400.615463
4084.602545,-3830.477490,-3627.009116,12065.356855
4084.602860,-4673.182538,-5403.503377,14359.995275
4084.603175,-3983.696590,-6587.832884,15840.407159
4084.603490,-2987.772442,-5551.544565,15322.262999
4084.603805,-1072.533697,-3627.009116,12731.542202
4084.604121,766.095498,370.102971,11177.109724
4084.604436,2834.553343,3775.050304,8734.430116
4084.604751,4673.182538,6957.935855,5181.441594
4084.605066,5515.887586,9104.533087,3108.864956
4084.605381,4979.620737,9326.594869,2590.720797
4084.605696,2911.162892,6513.812290,4589.276840
4084.606011,383.047749,3108.864956,8290.306550
4084.606326,-1302.362347,-1406.391290,11843.295072
4084.606642,-3447.429741,-4811.338623,14211.954086
4084.606957,-3294.210641,-6069.688724,16728.654289
4084.607272,-2757.943793,-6143.709319,16432.571912
4084.607587,-2451.505594,-4515.256246,13841.851115
4084.607902,-1072.533697,-1110.308913,12065.356855
4084.608217,689.485948,3256.906145,9326.594869
4084.608532,3064.381992,6809.894666,4737.318029
4084.608847,3830.477490,8956.491898,2146.597232
4084.609163,2834.553343,9474.636058,1776.494261
4084.609478,1302.362347,6217.729913,5255.462188
4084.609793,229.828649,2442.679609,9104.533087
4084.610108,-1532.190996,-592.164754,12213.398043
4084.610423,-2451.505594,-3404.947333,14137.933492
4084.610738,-2374.896044,-4367.215058,17764.942608
4084.611053,-1685.410096,-4811.338623,16580.613101
4084.611369,-383.047749,-3478.967927,14211.954086
4084.611684,383.047749,222.061783,9992.780217
4084.611999,1532.190996,2590.720797,8660.409521
4084.612314,3294.210641,6069.688724,5107.421000
4084.612629,3217.601092,7476.080014,2516.700203
4084.612944,1762.019645,6661.853478,2590.720797
4084.613259,612.876398,3701.029710,6217.729913
4084.613574,-1225.752797,444.123565,9770.718434
4084.613890,-2145.067394,-3478.967927,13249.686362
4084.614205,-2604.724693,-4737.318029,15100.201217
4084.614520,-1608.800546,-4959.379811,15618.345376
4084.614835,-229.828649,-4589.276840,14508.036463
4084.615150,612.876398,-2442.679609,12509.480420
4084.615465,1762.019645,-74.020594,10955.047942
4084.615780,3294.210641,3627.009116,7698.141797
4084.616096,3524.039291,5847.626942,3923.091493
4084.616411,2604.724693,7179.997637,2664.741391
4084.616726,1532.190996,4959.379811,4663.297435
4084.617041,0.000000,1998.556043,7105.977043
4084.617356,-1915.238745,-2368.659014,9844.739029
4084.617671,-2604.724693,-4885.359217,12065.356855
4084.617986,-2604.724693,-6439.791695,15544.324782
4084.618301,-1608.800546,-5477.523971,14804.118840
4084.618617,-995.924147,-5921.647536,13397.727550
4084.618932,842.705048,-2886.803174,10732.986159
4084.619247,1991.848295,-148.041188,10214.842000
4084.619562,2681.334243,3478.967927,6809.894666
4084.619877,2681.334243,4737.318029,3997.112087
4084.620192,2681.334243,4441.235652,3849.070898
4084.620507,1378.971896,2442.679609,5255.462188
4084.620823,-306.438199,814.226536,7328.038826
4084.621138,-1455.581446,-1406.391290,10214.842000
4084.621453,-2068.457845,-3552.988522,11029.068536
4084.621768,-1685.410096,-6883.915261,13693.809927
4084.622083,-459.657299,-6587.832884,14359.995275
4084.622398,76.609550,-5181.441594,13545.768739
4084.622713,459.657299,-2886.803174,11177.109724
4084.623028,459.657299,814.226536,8586.388927
4084.623344,689.485948,2664.741391,5773.606348
4084.623659,1302.362347,1850.514855,6809.894666
4084.623974,1302.362347,2072.576638,6143.709319
4084.624289,229.828649,1628.453072,7105.977043
4084.624604,-306.438199,370.102971,8142.265362
4084.624919,-842.705048,-592.164754,10881.027347
4084.625234,-612.876398,-1924.535449,11769.274478
4084.625550,-229.828649,-4071.132681,12065.356855
4084.625865,1225.752797,-3997.112087,11843.295072
4084.626180,1608.800546,-2294.638420,11325.150913
4084.626495,306.438199,-74.020594,10955.047942
4084.626810,-306.438199,1850.514855,8068.244768
4084.627125,-383.047749,1110.308913,8364.327145
4084.627440,-459.657299,592.164754,8512.368333
4084.627755,-459.657299,222.061783,8290.306550
4084.628071,-842.705048,740.205942,8142.265362
4084.628386,-1225.752797,444.123565,8512.368333
4084.628701,-919.314598,-296.082377,9400.615463
4084.629016,0.000000,-814.226536,10214.842000
4084.629331,1149.143247,-296.082377,11399.171507
4084.629646,1072.533697,-0.000000,10362.883188
4084.629961,689.485948,444.123565,10140.821405
4084.630277,229.828649,1184.329507,9474.636058
4084.630592,-306.438199,1998.556043,9474.636058
4084.630907,-995.924147,1554.432478,10214.842000
4084.631222,-1302.362347,1036.288319,9178.553681
4084.631537,-1455.581446,740.205942,8882.471304
4084.631852,-536.266849,962.267725,9696.697840
4084.632167,0.000000,888.247130,8660.409521
4084.632482,0.000000,1776.494261,8512.368333
4084.632798,919.314598,2072.576638,8364.327145
4084.633113,842.705048,2072.576638,9104.533087
4084.633428,153.219100,1184.329507,9918.759623
4084.633743,229.828649,1554.432478,10807.006753
4084.634058,-612.876398,1258.350101,10658.965565
4084.634373,-1225.752797,1110.308913,11769.274478
4084.634688,-919.314598,814.226536,11547.212695
4084.635003,-383.047749,592.164754,11029.068536
4084.635319,0.000000,1110.308913,10510.924376
4084.635634,1532.190996,1776.494261,9178.553681
4084.635949,2068.457845,3108.864956,7846.182985
4084.636264,2451.505594,3849.070898,7105.977043
4084.636579,1608.800546,3775.050304,7698.141797
4084.636894,383.047749,2368.659014,7994.224174
4084.637209,-229.828649,814.226536,10066.800811
4084.637525,-995.924147,-222.061783,11399.171507
4084.637840,-2145.067394,-1480.411884,13027.624579
4084.638155,-2145.067394,-2146.597232,13397.727550
4084.638470,-1532.190996,-2368.659014,13249.686362
4084.638785,-536.266849,-1110.308913,11399.171507
4084.639100,459.657299,666.185348,10140.821405
4084.639415,2145.067394,2516.700203,7698.141797
4084.639730,3064.381992,3701.029710,6439.791695
4084.640046,2834.553343,4071.132681,6069.688724
4084.640361,1608.800546,3404.947333,6069.688724
4084.640676,536.266849,1776.494261,8216.285956
4084.640991,-612.876398,-296.082377,9918.759623
4084.641306,-1762.019645,-2738.761985,12435.459826
4084.641621,-2451.505594,-4293.194464,13545.768739
4084.641936,-2145.067394,-3997.112087,13619.789333
4084.642252,-995.924147,-3256.906145,12583.501014
4084.642567,459.657299,-1258.350101,10584.944971
4084.642882,1685.410096,814.226536,8438.347739
4084.643197,2374.896044,2146.597232,6661.853478
4084.643512,2681.334243,3552.988522,5329.482782
4084.643827,2221.676944,3701.029710,4441.235652
4084.644142,1302.362347,2146.597232,5995.668130
4084.644457,306.438199,296.082377,8586.388927
4084.644773,-1532.190996,-1998.556043,10955.047942
4084.645088,-1838.629195,-3552.988522,12213.398043
4084.645403,-2068.457845,-4811.338623,13619.789333
4084.645718,-1762.019645,-4367.215058,12879.583391
4084.646033,-536.266849,-3775.050304,11177.109724
4084.646348,459.657299,-1184.329507,9104.533087
4084.646663,1455.581446,1036.288319,6809.894666
4084.646979,1378.971896,2590.720797,5847.626942
4084.647294,1838.629195,2960.823768,5181.441594
4084.647609,459.657299,1702.473667,6809.894666
4084.647924,0.000000,-0.000000,8068.244768
4084.648239,-1225.752797,-1110.308913,10288.862594
4084.648554,-2145.067394,-2664.741391,11769.274478
4084.648869,-2221.676944,-4145.153275,13619.789333
4084.649184,-1685.410096,-4219.173869,13693.809927
4084.649500,0.000000,-3775.050304,11843.295072
4084.649815,766.095498,-1184.329507,10436.903782
4084.650130,1378.971896,1110.308913,7698.141797
4084.650445,1838.629195,2368.659014,6365.771101
4084.650760,1378.971896,3182.885551,5551.544565
4084.651075,229.828649,1998.556043,6513.812290
4084.651390,0.000000,592.164754,7920.203579
4084.651706,-995.924147,-592.164754,9622.677246
4084.652021,-1915.238745,-2072.576638,11843.295072
4084.652336,-2145.067394,-2960.823768,12879.583391
4084.652651,-1532.190996,-3034.844362,13027.624579
4084.652966,0.000000,-2516.700203,12287.418637
4084.653281,1149.143247,-1184.329507,10658.965565
4084.653596,2221.676944,1110.308913,9030.512492
4084.653911,2374.896044,2368.659014,7402.059420
4084.654227,1762.019645,3923.091493,6217.729913
4084.654542,1685.410096,3330.926739,6143.709319
4084.654857,612.876398,1998.556043,7476.080014
4084.655172,0.000000,370.102971,9474.636058
4084.655487,-612.876398,-888.247130,11399.171507
4084.655802,-1149.143247,-1702.473667,11843.295072
4084.656117,-459.657299,-1776.494261,12657.521608
4084.656432,919.314598,-1554.432478,12213.398043
4084.656748,919.314598,-296.082377,10436.903782
4084.657063,1991.848295,518.144159,9474.636058
4084.657378,2068.457845,1924.535449,8512.368333
4084.657693,1608.800546,3849.070898,7105.977043
4084.658008,1608.800546,3849.070898,7105.977043
4084.658323,536.266849,3108.864956,8734.430116
4084.658638,-766.095498,1702.473667,9770.718434
4084.658954,-766.095498,-444.123565,11325.150913
4084.659269,-919.314598,-1258.350101,11843.295072
4084.659584,-306.438199,-1184.329507,11769.274478
4084.659899,76.609550,-148.041188,11251.130318
4084.660214,612.876398,666.185348,9918.759623
4084.660529,1149.143247,1702.473667,9030.512492
4084.660844,1378.971896,2146.597232,8808.450710
4084.661159,459.657299,2516.700203,7772.162391
4084.661475,153.219100,2146.597232,7772.162391
4084.661790,-306.438199,1850.514855,9178.553681
4084.662105,-919.314598,592.164754,9770.718434
4084.662420,-2068.457845,-814.226536,10955.047942
4084.662736,-1685.410096,-1406.391290,11695.253884
4084.663051,-842.705048,-1258.350101,11325.150913
4084.663366,0.000000,-148.041188,10584.944971
4084.663681,766.095498,296.082377,9178.553681
4084.663997,1302.362347,1332.370696,8142.265362
4084.664312,1378.971896,1998.556043,7624.121203
4084.664627,0.000000,1850.514855,7846.182985
4084.664942,0.000000,1554.432478,8586.388927
4084.665258,-919.314598,222.061783,9548.656652
4084.665573,-1838.629195,-666.185348,10362.883188
4084.665888,-1302.362347,-1184.329507,11399.171507
4084.666203,-1991.848295,-1554.432478,11473.192101
4084.666519,-1225.752797,-1258.350101,11177.109724
4084.666834,229.828649,-0.000000,9992.780217
4084.667149,1072.533697,888.247130,8660.409521
4084.667464,1532.190996,1184.329507,7624.121203
4084.667780,995.924147,2146.597232,7254.018232
4084.668095,153.219100,1924.535449,7772.162391
4084.668410,0.000000,888.247130,8882.471304
4084.668726,-919.314598,-74.020594,10214.842000
4084.669041,-1302.362347,-1406.391290,11399.171507
4084.669356,-1532.190996,-2220.617826,12065.356855
4084.669671,-1378.971896,-2294.638420,11695.253884
4084.669987,0.000000,-1554.432478,10881.027347
4084.670302,1838.629195,-370.102971,9548.656652
4084.670617,1915.238745,1036.288319,7994.224174
4084.670932,2145.067394,2146.597232,7031.956449
4084.671248,2145.067394,2294.638420,6883.915261
4084.671563,1149.143247,1702.473667,7105.977043
4084.671878,766.095498,518.144159,8734.430116
4084.672193,-383.047749,-814.226536,10362.883188
4084.672509,-1378.971896,-2072.576638,11695.253884
4084.672824,-1302.362347,-2886.803174,12213.398043
4084.673139,-842.705048,-3330.926739,12879.583391
4084.673454,0.000000,-2516.700203,11695.253884
4084.673770,1149.143247,-666.185348,9696.697840
4084.674085,1915.238745,740.205942,8142.265362
4084.674400,2681.334243,1924.535449,7031.956449
4084.674715,2604.724693,2442.679609,6809.894666
4084.675031,1532.190996,2146.597232,6957.935855
4084.675346,842.705048,740.205942,8586.388927
4084.675661,0.000000,-962.267725,10066.800811
4084.675977,-842.705048,-2516.700203,11399.171507
4084.676292,-1302.362347,-3404.947333,12509.480420
4084.676607,-842.705048,-3034.844362,12361.439231
4084.676922,0.000000,-2442.679609,11251.130318
4084.677238,1072.533697,-1110.308913,9844.739029
4084.677553,1838.629195,666.185348,7920.203579
4084.677868,2298.286494,1554.432478,7179.997637
4084.678183,1532.190996,2664.741391,5921.647536
4084.678499,842.705048,2368.659014,6661.853478
4084.678814,536.266849,1110.308913,8438.347739
4084.679129,-766.095498,-370.102971,9844.739029
4084.679444,-1378.971896,-1628.453072,11325.150913
4084.679760,-1838.629195,-2442.679609,12435.459826
4084.680075,-2298.286494,-2738.761985,13101.645173
4084.680390,-766.095498,-1628.453072,11843.295072
4084.680705,76.609550,-888.247130,10288.862594
4084.681021,766.095498,814.226536,8586.388927
4084.681336,1149.143247,2516.700203,6957.935855
4084.681651,689.485948,3627.009116,6365.771101
4084.681967,459.657299,3108.864956,6587.832884
4084.682282,0.000000,1554.432478,7920.203579
4084.682597,-1072.533697,740.205942,9548.656652
4084.682912,-1838.629195,-888.247130,11103.089130
4084.683228,-1991.848295,-2220.617826,11621.233289
4084.683543,-2068.457845,-1924.535449,12361.439231
4084.683858,-1072.533697,-1850.514855,11325.150913
4084.684173,-306.438199,-592.164754,10807.006753
4084.684489,1225.752797,1332.370696,8438.347739
4084.684804,1455.581446,2738.761985,7179.997637
4084.685119,919.314598,3849.070898,6439.791695
4084.685434,689.485948,3775.050304,6809.894666
4084.685750,0.000000,2812.782580,8216.285956
4084.686065,-689.485948,1184.329507,10214.842000
4084.686380,-1532.190996,-296.082377,11473.192101
4084.686695,-1762.019645,-1998.556043,12435.459826
4084.687011,-1532.190996,-1850.514855,12879.583391
4084.687326,-459.657299,-740.205942,11843.295072
4084.687641,766.095498,-0.000000,10362.883188
4084.687956,1685.410096,1554.432478,8808.450710
4084.688272,2221.676944,2960.823768,7920.203579
4084.688587,1608.800546,3775.050304,6883.915261
4084.688902,1225.752797,3923.091493,7402.059420
4084.689218,689.485948,2664.741391,7994.224174
4084.689533,0.000000,1036.288319,9918.759623
4084.689848,-459.657299,-518.144159,11769.274478
4084.690163,-1149.143247,-2294.638420,13101.645173
4084.690479,-919.314598,-2072.576638,13249.686362
4084.690794,76.609550,-1406.391290,12139.377449
4084.691109,1149.143247,-296.082377,10732.986159
4084.691424,1991.848295,1184.329507,9400.615463
4084.691740,2451.505594,2516.700203,8438.347739
4084.692055,2145.067394,3182.885551,7105.977043
4084.692370,1838.629195,2812.782580,7031.956449
4084.692685,1149.143247,1702.473667,8290.306550
4084.693001,-229.828649,518.144159,9696.697840
4084.693316,-1072.533697,-1110.308913,11325.150913
4084.693631,-1072.533697,-2664.741391,12361.439231
4084.693946,-919.314598,-2664.741391,11917.315666
4084.694262,0.000000,-1998.556043,11177.109724
4084.694577,612.876398,-962.267725,10288.862594
4084.694892,1225.752797,444.123565,8512.368333
4084.695207,1532.190996,1554.432478,7328.038826
4084.695523,995.924147,1776.494261,7105.977043
4084.695838,612.876398,1776.494261,7105.977043
4084.696153,689.485948,814.226536,8660.409521
4084.696469,-919.314598,-444.123565,9474.636058
4084.696784,-1302.362347,-1776.494261,10584.944971
4084.697099,-1532.190996,-2516.700203,11473.192101
4084.697414,-1302.362347,-2516.700203,11325.150913
4084.697730,-229.828649,-2072.576638,11103.089130
4084.698045,306.438199,-1332.370696,9400.615463
4084.698360,1225.752797,148.041188,8216.285956
4084.698675,1225.752797,1258.350101,7105.977043
4084.698991,612.876398,1850.514855,6883.915261
4084.699306,0.000000,1110.308913,7402.059420
4084.699621,-689.485948,-74.020594,8290.306550
4084.699936,-1532.190996,-1406.391290,9696.697840
4084.700252,-1991.848295,-2368.659014,11103.089130
4084.700567,-2298.286494,-2664.741391,11843.295072
4084.700882,-1532.190996,-2590.720797,11621.233289
4084.701197,-306.438199,-1406.391290,10436.903782
4084.701513,306.438199,-666.185348,9474.636058
4084.701828,1455.581446,518.144159,7994.224174
4084.702143,1378.971896,1258.350101,7698.141797
4084.702459,766.095498,2368.659014,7328.038826
4084.702774,76.609550,1998.556043,7550.100608
4084.703089,-306.438199,592.164754,8882.471304
4084.703404,-1378.971896,-592.164754,10362.883188
4084.703720,-1455.581446,-2442.679609,11695.253884
4084.704035,-1532.190996,-2368.659014,12361.439231
4084.704350,-1225.752797,-2146.597232,11843.295072
4084.704665,0.000000,-1776.494261,11177.109724
4084.704981,1149.143247,-222.061783,9696.697840
4084.705296,1991.848295,1332.370696,7994.224174
4084.705611,2068.457845,2072.576638,7698.141797
4084.705926,1838.629195,2812.782580,6883.915261
4084.706242,1149.143247,2146.597232,7402.059420
4084.706557,766.095498,1332.370696,8808.450710
4084.706872,-306.438199,-296.082377,10288.862594
4084.707187,-995.924147,-1554.432478,11695.253884
4084.707503,-612.876398,-2590.720797,12213.398043
4084.707818,-383.047749,-1924.535449,12139.377449
4084.708133,1072.533697,-888.247130,11547.212695
4084.708448,1991.848295,740.205942,9474.636058
4084.708764,2145.067394,1924.535449,7994.224174
4084.709079,2451.505594,2738.761985,7550.100608
4084.709394,1915.238745,3627.009116,7328.038826
4084.709710,1225.752797,2812.782580,8142.265362
4084.710025,689.485948,1406.391290,9474.636058
4084.710340,-459.657299,296.082377,10955.047942
4084.710655,-766.095498,-1036.288319,12583.501014
4084.710971,-766.095498,-1776.494261,12805.562797
4084.711286,0.000000,-1554.432478,12879.583391
4084.711601,536.266849,-814.226536,11399.171507
4084.711916,1685.410096,740.205942,9252.574275
4084.712232,2221.676944,1998.556043,7994.224174
4084.712547,2068.457845,2738.761985,7254.018232
4084.712862,1225.752797,2664.741391,7179.997637
4084.713177,536.266849,2294.638420,7772.162391
4084.713493,0.000000,1554.432478,8956.491898
4084.713808,-1378.971896,-518.144159,10658.965565
4084.714123,-1762.019645,-1924.535449,11843.295072
4084.714438,-2068.457845,-2220.617826,12879.583391
4084.714754,-1532.190996,-1924.535449,12361.439231
4084.715069,-153.219100,-1258.350101,10807.006753
4084.715384,612.876398,444.123565,9400.615463
4084.715700,1302.362347,1776.494261,7698.141797
4084.716015,1225.752797,2664.741391,7105.977043
4084.716330,229.828649,2738.761985,6809.894666
4084.716645,0.000000,2072.576638,7476.080014
4084.716961,-842.705048,740.205942,8882.471304
4084.717276,-1838.629195,-666.185348,10288.862594
4084.717591,-2451.505594,-2072.576638,11251.130318
4084.717906,-2221.676944,-2960.823768,12435.459826
4084.718222,-1915.238745,-2516.700203,11917.315666
4084.718537,-459.657299,-1702.473667,10436.903782
4084.718852,536.266849,148.041188,9104.533087
4084.719167,1225.752797,1554.432478,7402.059420
4084.719483,1149.143247,2368.659014,6365.771101
4084.719798,842.705048,2812.782580,6735.874072
4084.720113,383.047749,2072.576638,7550.100608
4084.720428,-153.219100,-0.000000,8734.430116
4084.720744,-1072.533697,-444.123565,10066.800811
4084.721059,-1685.410096,-1702.473667,11473.192101
4084.721374,-1378.971896,-2072.576638,12139.377449
4084.721689,-689.485948,-1924.535449,11917.315666
4084.722005,459.657299,-1110.308913,10732.986159
4084.722320,1302.362347,222.061783,9474.636058
4084.722635,2068.457845,1554.432478,7698.141797
4084.722951,1838.629195,2368.659014,7179.997637
4084.723266,1225.752797,2442.679609,6735.874072
4084.723581,689.485948,1332.370696,7920.203579
4084.723896,0.000000,444.123565,9474.636058
4084.724212,-1302.362347,-1258.350101,10584.944971
4084.724527,-1378.971896,-2442.679609,12139.377449
4084.724842,-1378.971896,-2590.720797,12287.418637
4084.725157,-383.047749,-1924.535449,12287.418637
4084.725473,842.705048,-962.267725,11251.130318
4084.725788,1685.410096,222.061783,9474.636058
4084.726103,2451.505594,1406.391290,7994.224174
4084.726418,2221.676944,1924.535449,7846.182985
4084.726734,1838.629195,2294.638420,7328.038826
4084.727049,919.314598,1850.514855,8216.285956
4084.727364,-153.219100,592.164754,9474.636058
4084.727679,-919.314598,-962.267725,10584.944971
4084.727995,-1072.533697,-2516.700203,11621.233289
4084.728310,-1149.143247,-3034.844362,12287.418637
4084.728625,-459.657299,-2516.700203,11917.315666
4084.728941,766.095498,-1332.370696,10955.047942
4084.729256,1608.800546,-0.000000,8882.471304
4084.729571,1915.238745,1332.370696,7994.224174
4084.729886,1915.238745,2146.597232,7328.038826
4084.730202,1072.533697,2368.659014,6661.853478
4084.730517,612.876398,1850.514855,8142.265362
4084.730832,0.000000,814.226536,9400.615463
4084.731147,-1072.533697,-740.205942,10584.944971
4084.731463,-1608.800546,-1850.514855,11103.089130
4084.731778,-1302.362347,-1924.535449,12213.398043
4084.732093,-689.485948,-1480.411884,11843.295072
4084.732408,383.047749,-1036.288319,10584.944971
4084.732724,1762.019645,666.185348,8882.471304
4084.733039,1302.362347,1406.391290,7772.162391
4084.733354,536.266849,2368.659014,7179.997637
4084.733669,76.609550,2368.659014,7179.997637
4084.733985,-306.438199,1776.494261,8290.306550
4084.734300,-1225.752797,296.082377,9770.718434
4084.734615,-1991.848295,-814.226536,10584.944971
4084.734930,-2145.067394,-1628.453072,11325.150913
4084.735246,-2145.067394,-1998.556043,12065.356855
4084.735561,-919.314598,-1184.329507,11251.130318
4084.735876,76.609550,-592.164754,9992.780217
4084.736192,919.314598,1036.288319,8290.306550
4084.736507,1532.190996,2368.659014,7105.977043
4084.736822,1149.143247,3182.885551,6809.894666
4084.737137,689.485948,3034.844362,7105.977043
4084.737453,0.000000,2146.597232,8216.285956
4084.737768,-1149.143247,296.082377,9844.739029
4084.738083,-1762.019645,-1258.350101,11399.171507
4084.738398,-2221.676944,-1998.556043,12065.356855
4084.738714,-1608.800546,-1998.556043,12509.480420
4084.739029,-689.485948,-1332.370696,11843.295072
4084.739344,612.876398,-222.061783,10288.862594
4084.739659,1838.629195,1776.494261,8808.450710
4084.739975,2374.896044,2146.597232,7476.080014
4084.740290,2298.286494,2886.803174,7476.080014
4084.740605,1225.752797,2738.761985,7105.977043
4084.740920,459.657299,1998.556043,8142.265362
4084.741236,-153.219100,1036.288319,10214.842000
4084.741551,-919.314598,-740.205942,11325.150913
4084.741866,-1149.143247,-1776.494261,12213.398043
4084.742182,-919.314598,-2220.617826,12213.398043
4084.742497,-229.828649,-1480.411884,12287.418637
4084.742812,842.705048,-74.020594,10584.944971
4084.743127,1455.581446,1110.308913,8956.491898
4084.743443,2221.676944,2368.659014,8068.244768
4084.743758,1685.410096,3182.885551,7476.080014
4084.744073,995.924147,2960.823768,7402.059420
4084.744388,689.485948,2072.576638,8956.491898
4084.744704,-229.828649,740.205942,10214.842000
4084.745019,-612.876398,-592.164754,11621.233289
4084.745334,-919.314598,-1924.535449,12361.439231
4084.745649,-689.485948,-1850.514855,12287.418637
4084.745965,306.438199,-1406.391290,11769.274478
4084.746280,536.266849,-518.144159,10066.800811
4084.746595,1685.410096,814.226536,8586.388927
4084.746910,1915.238745,1702.473667,7402.059420
4084.747226,1302.362347,1998.556043,6957.935855
4084.747541,536.266849,1332.370696,7105.977043
4084.747856,0.000000,740.205942,8364.327145
4084.748171,-766.095498,-296.082377,9770.718434
4084.748487,-1838.629195,-1850.514855,11177.109724
4084.748802,-1608.800546,-2738.761985,12065.356855
4084.749117,-1072.533697,-2590.720797,11769.274478
4084.749433,-383.047749,-1776.494261,11251.130318
4084.749748,919.314598,-740.205942,9770.718434
4084.750063,1685.410096,518.144159,8216.285956
4084.750378,1991.848295,1998.556043,7105.977043
4084.750694,995.924147,2146.597232,6661.853478
4084.751009,306.438199,1554.432478,7328.038826
4084.751324,76.609550,444.123565,8734.430116
4084.751639,-1225.752797,-814.226536,9622.677246
4084.751955,-1838.629195,-2220.617826,10881.027347
4084.752270,-1685.410096,-3256.906145,11991.336260
4084.752585,-1915.238745,-2812.782580,11769.274478
4084.752900,-306.438199,-2368.659014,10807.006753
4084.753216,612.876398,-962.267725,9400.615463
4084.753531,1225.752797,814.226536,8142.265362
4084.753846,1762.019645,1998.556043,6883.915261
4084.754161,1149.143247,2442.679609,6291.750507
4084.754477,612.876398,1702.473667,6883.915261
4084.754792,0.000000,444.123565,8512.368333
4084.755107,-766.095498,-518.144159,9992.780217
4084.755423,-1225.752797,-1554.432478,11473.192101
4084.755738,-1915.238745,-2220.617826,12287.418637
4084.756053,-995.924147,-1924.535449,12139.377449
4084.756368,-383.047749,-1406.391290,11029.068536
4084.756684,1149.143247,-148.041188,10066.800811
4084.756999,1838.629195,1110.308913,8364.327145
4084.757314,1838.629195,1998.556043,7328.038826
4084.757629,1149.143247,2442.679609,6957.935855
4084.757945,766.095498,2368.659014,7031.956449
4084.758260,-306.438199,1110.308913,8882.471304
4084.758575,-689.485948,-0.000000,10140.821405
4084.758890,-1302.362347,-1628.453072,11547.212695
4084.759206,-1072.533697,-2368.659014,12287.418637
4084.759521,-536.266849,-2072.576638,11843.295072
4084.759836,1225.752797,-1110.308913,11399.171507
4084.760151,1455.581446,370.102971,9696.697840
4084.760467,1991.848295,1776.494261,8142.265362
4084.760782,2221.676944,2442.679609,7105.977043
4084.761097,1608.800546,3108.864956,7031.956449
4084.761412,995.924147,2442.679609,7846.182985
4084.761728,459.657299,1258.350101,9474.636058
4084.762043,-612.876398,-0.000000,10584.944971
4084.762358,-1532.190996,-1258.350101,12287.418637
4084.762674,-1685.410096,-1850.514855,12805.562797
4084.762989,-689.485948,-1998.556043,12953.603985
4084.763304,153.219100,-814.226536,11473.192101
4084.763619,1302.362347,296.082377,9844.739029
4084.763935,2068.457845,2146.597232,7920.203579
4084.764250,1915.238745,2886.803174,7031.956449
4084.764565,1685.410096,3108.864956,6513.812290
4084.764880,612.876398,2220.617826,7328.038826
4084.765196,0.000000,1406.391290,9326.594869
4084.765511,-1225.752797,-148.041188,10584.944971
4084.765826,-2221.676944,-1554.432478,11843.295072
4084.766141,-2374.896044,-1998.556043,12509.480420
4084.766457,-1378.971896,-1998.556043,12509.480420
4084.766772,-383.047749,-1110.308913,11251.130318
4084.767087,459.657299,296.082377,9326.594869
4084.767402,1225.752797,1406.391290,7994.224174
4084.767718,1838.629195,2442.679609,7179.997637
4084.768033,919.314598,3108.864956,6661.853478
4084.768348,0.000000,2516.700203,7179.997637
4084.768663,-229.828649,1258.350101,8586.388927
4084.768979,-995.924147,-444.123565,10436.903782
4084.769294,-1838.629195,-1628.453072,11547.212695
4084.769609,-2221.676944,-2368.659014,12065.356855
4084.769924,-1455.581446,-1776.494261,11769.274478
4084.770240,-229.828649,-888.247130,10510.924376
4084.770555,459.657299,222.061783,9400.615463
4084.770870,919.314598,1554.432478,7772.162391
4084.771185,1072.533697,2146.597232,7105.977043
4084.771501,229.828649,2812.782580,6291.750507
4084.771816,76.609550,2294.638420,7328.038826
4084.772131,-229.828649,1036.288319,9178.553681
4084.772446,-1302.362347,-888.247130,10658.965565
4084.772762,-1685.410096,-1998.556043,11843.295072
4084.773077,-1762.019645,-2590.720797,12657.521608
4084.773392,-689.485948,-1850.514855,12139.377449
4084.773707,612.876398,-962.267725,11103.089130
4084.774023,1302.362347,370.102971,9474.636058
4084.774338,1991.848295,1628.453072,8216.285956
4084.774653,2145.067394,2516.700203,6809.894666
4084.774968,1532.190996,3256.906145,6069.688724
4084.775284,919.314598,1702.473667,7402.059420
4084.775599,153.219100,740.205942,9178.553681
4084.775914,-766.095498,-592.164754,11029.068536
4084.776229,-1685.410096,-2294.638420,12139.377449
4084.776545,-1532.190996,-3108.864956,13027.624579
4084.776860,-995.924147,-2516.700203,12509.480420
4084.777175,0.000000,-1702.473667,11399.171507
4084.777490,1225.752797,-0.000000,9696.697840
4084.777806,1915.238745,1406.391290,8290.306550
4084.778121,2298.286494,2368.659014,7624.121203
4084.778436,1762.019645,2590.720797,7031.956449
4084.778751,995.924147,2072.576638,7772.162391
4084.779067,306.438199,814.226536,9104.533087
4084.779382,-459.657299,-518.144159,10658.965565
4084.779697,-995.924147,-2220.617826,11991.336260
4084.780012,-995.924147,-2738.761985,12213.398043
4084.780328,-536.266849,-2516.700203,11843.295072
4084.780643,153.219100,-1776.494261,10807.006753
4084.780958,1072.533697,-370.102971,9252.574275
4084.781273,1685.410096,666.185348,7920.203579
4084.781589,1608.800546,1480.411884,7105.977043
4084.781904,995.924147,1776.494261,6513.812290
4084.782219,229.828649,1258.350101,7402.059420
4084.782534,0.000000,296.082377,8512.368333
4084.782850,-995.924147,-592.164754,10510.924376
4084.783165,-1378.971896,-1998.556043,11769.274478
4084.783480,-1532.190996,-2442.679609,11917.315666
4084.783795,-919.314598,-2368.659014,11769.274478
4084.784111,612.876398,-1332.370696,10510.924376
4084.784426,919.314598,-0.000000,9400.615463
4084.784741,1455.581446,1850.514855,7624.121203
4084.785056,1225.752797,2220.617826,7105.977043
4084.785372,383.047749,2368.659014,6735.874072
4084.785687,0.000000,1258.350101,7772.162391
4084.786002,-689.485948,222.061783,8956.491898
4084.786317,-1378.971896,-1480.411884,10807.006753
4084.786633,-2145.067394,-1850.514855,11843.295072
4084.786948,-2221.676944,-2220.617826,11843.295072
4084.787263,-766.095498,-1776.494261,11325.150913
4084.787578,229.828649,-370.102971,9844.739029
4084.787894,1149.143247,370.102971,8734.430116
4084.788209,1991.848295,2072.576638,7328.038826
4084.788524,1455.581446,2664.741391,6809.894666
4084.788839,612.876398,2738.761985,7105.977043
4084.789155,0.000000,1702.473667,7920.203579
4084.789470,-842.705048,962.267725,9400.615463
4084.789785,-995.924147,-666.185348,11473.192101
4084.790100,-1455.581446,-1850.514855,12583.501014
4084.790416,-1455.581446,-2294.638420,12657.521608
4084.790731,-766.095498,-1480.411884,12287.418637
4084.791046,459.657299,-74.020594,10288.862594
4084.791361,1915.238745,1258.350101,8808.450710
4084.791677,2681.334243,2220.617826,7624.121203
4084.791992,2068.457845,3108.864956,6883.915261
4084.792307,1225.752797,3034.844362,7254.018232
4084.792622,766.095498,1924.535449,8660.409521
4084.792938,-306.438199,888.247130,9474.636058
4084.793253,-1378.971896,-518.144159,11547.212695
4084.793568,-1302.362347,-2368.659014,13027.624579
4084.793883,-1378.971896,-2368.659014,12805.562797
4084.794199,-383.047749,-1480.411884,12139.377449
4084.794514,766.095498,-444.123565,10732.986159
4084.794829,1608.800546,888.247130,9326.594869
4084.795144,2604.724693,2664.741391,7550.100608
4084.795460,2221.676944,3404.947333,7105.977043
4084.795775,1378.971896,3034.844362,6661.853478
4084.796090,766.095498,1924.535449,8660.409521
4084.796405,0.000000,370.102971,9992.780217
4084.796721,-919.314598,-1110.308913,11695.253884
4084.797036,-1838.629195,-2516.700203,12953.603985
4084.797351,-1532.190996,-2664.741391,13027.624579
4084.797666,-766.095498,-1850.514855,12065.356855
4084.797982,1072.533697,-1258.350101,9770.718434
4084.798297,1608.800546,1036.288319,8734.430116
4084.798612,1762.019645,2220.617826,7328.038826
4084.798927,1455.581446,2664.741391,6809.894666
4084.799243,995.924147,2886.803174,6439.791695
4084.799558,153.219100,1406.391290,7920.203579
4084.799873,-1072.533697,-0.000000,9548.656652
4084.800188,-1915.238745,-1332.370696,11029.068536
4084.800504,-2374.896044,-2664.741391,11843.295072
4084.800819,-1915.238745,-2590.720797,12213.398043
4084.801134,-842.705048,-1628.453072,11769.274478
4084.801449,-229.828649,-888.247130,9696.697840
4084.801765,842.705048,222.061783,8586.388927
4084.802080,1225.752797,1628.453072,7179.997637
4084.802395,766.095498,2294.638420,6513.812290
4084.802710,0.000000,2146.597232,7031.956449
4084.803026,-383.047749,1554.432478,7920.203579
4084.803341,-1302.362347,-0.000000,9696.697840
4084.803656,-1915.238745,-1702.473667,10732.986159
4084.803971,-2145.067394,-2368.659014,11843.295072
4084.804287,-1685.410096,-2442.679609,12213.398043
4084.804602,-842.705048,-1924.535449,11547.212695
4084.804917,383.047749,-814.226536,9992.780217
4084.805232,1302.362347,592.164754,8660.409521
4084.805548,1915.238745,2072.576638,7179.997637
4084.805863,1072.533697,2590.720797,6587.832884
4084.806178,766.095498,2516.700203,7105.977043
4084.806493,153.219100,1998.556043,7994.224174
4084.806809,-919.314598,296.082377,9178.553681
4084.807124,-1378.971896,-1480.411884,11177.109724
4084.807439,-1455.581446,-2590.720797,12657.521608
4084.807754,-1225.752797,-2368.659014,12805.562797
4084.808070,-306.438199,-1702.473667,11991.336260
4084.808385,689.485948,-592.164754,10140.821405
4084.808700,1838.629195,1554.432478,8808.450710
4084.809015,1838.629195,2294.638420,7254.018232
4084.809331,1915.238745,2664.741391,7179.997637
4084.809646,1302.362347,2812.782580,7402.059420
4084.809961,1149.143247,1850.514855,8142.265362
4084.810276,842.705048,518.144159,10140.821405
4084.810592,-1302.362347,-1332.370696,11621.233289
4084.810907,-1608.800546,-2146.597232,12583.501014
4084.811222,-1149.143247,-2516.700203,12731.542202
4084.811537,0.000000,-1776.494261,11991.336260
4084.811853,995.924147,-888.247130,10658.965565
4084.812168,2451.505594,1184.329507,8660.409521
4084.812483,2451.505594,1850.514855,7179.997637
4084.812798,1838.629195,2738.761985,7476.080014
4084.813114,1225.752797,2294.638420,7031.956449
4084.813429,1149.143247,1480.411884,8734.430116
4084.813744,0.000000,444.123565,9918.759623
4084.814059,-612.876398,-888.247130,11103.089130
4084.814375,-1072.533697,-1924.535449,11991.336260
4084.814690,-689.485948,-1924.535449,11991.336260
4084.815005,153.219100,-1332.370696,11695.253884
4084.815320,689.485948,-444.123565,9622.677246
4084.815636,1532.190996,666.185348,8068.244768
4084.815951,1532.190996,1702.473667,7402.059420
4084.816266,842.705048,2368.659014,7105.977043
4084.816581,612.876398,1554.432478,7402.059420
4084.816897,-306.438199,888.247130,8216.285956
4084.817212,-689.485948,-148.041188,9696.697840
4084.817527,-1532.190996,-1406.391290,11029.068536
4084.817842,-1455.581446,-2072.576638,11843.295072
4084.818158,-1149.143247,-1702.473667,12213.398043
4084.818473,-383.047749,-1480.411884,11251.130318
4084.818788,383.047749,-0.000000,9474.636058
4084.819103,1225.752797,1110.308913,7994.224174
4084.819419,1225.752797,2220.617826,7402.059420
4084.819734,536.266849,2368.659014,6809.894666
4084.820049,0.000000,2220.617826,7698.141797
4084.820364,-689.485948,962.267725,9178.553681
4084.820680,-1608.800546,-370.102971,9918.759623
4084.820995,-1991.848295,-1480.411884,11473.192101
4084.821310,-2528.115143,-2368.659014,12287.418637
4084.821625,-1838.629195,-1924.535449,12213.398043
4084.821941,-612.876398,-962.267725,10807.006753
4084.822256,689.485948,-0.000000,9252.574275
4084.822571,1455.581446,1184.329507,7920.203579
4084.822886,1532.190996,2516.700203,6957.935855
4084.823202,1072.533697,3182.885551,6513.812290
4084.823517,459.657299,2812.782580,7476.080014
4084.823832,-306.438199,1480.411884,8438.347739
4084.824147,-1378.971896,-0.000000,10510.924376
4084.824463,-1532.190996,-1702.473667,11991.336260
4084.824778,-1455.581446,-2220.617826,12435.459826
4084.825093,-995.924147,-2368.659014,12287.418637
4084.825408,229.828649,-1184.329507,11473.192101
4084.825724,1072.533697,-0.000000,9992.780217
4084.826039,1915.238745,1850.514855,7920.203579
4084.826354,2145.067394,2886.803174,7179.997637
4084.826669,1838.629195,3108.864956,6735.874072
4084.826985,1838.629195,2368.659014,7994.224174
4084.827300,536.266849,962.267725,9474.636058
4084.827615,-383.047749,-370.102971,11177.109724
4084.827930,-1149.143247,-1554.432478,12287.418637
4084.828246,-842.705048,-2368.659014,13101.645173
4084.828561,0.000000,-2146.597232,12805.562797
4084.828876,766.095498,-1480.411884,11843.295072
4084.829191,1838.629195,370.102971,9548.656652
4084.829506,2451.505594,1924.535449,7772.162391
4084.829822,2374.896044,2664.741391,7105.977043
4084.830137,1915.238745,2960.823768,7179.997637
4084.830452,1072.533697,1998.556043,7994.224174
4084.830767,459.657299,1036.288319,9400.615463
4084.831083,-766.095498,-962.267725,11177.109724
4084.831398,-1378.971896,-2146.597232,11843.295072
4084.831713,-1072.533697,-2516.700203,12731.542202
4084.832028,-842.705048,-2368.659014,12731.542202
4084.832344,0.000000,-1554.432478,11103.089130
4084.832659,1072.533697,-0.000000,9178.553681
4084.832974,1608.800546,1258.350101,7698.141797
4084.833289,1991.848295,2368.659014,6587.832884
4084.833605,1378.971896,2738.761985,6365.771101
4084.833920,-229.828649,1554.432478,7402.059420
4084.834235,-612.876398,592.164754,8956.491898
4084.834550,-1532.190996,-888.247130,10288.862594
4084.834866,-2374.896044,-2516.700203,11399.171507
4084.835181,-1915.238745,-2664.741391,12361.439231
4084.835496,-1302.362347,-2516.700203,11917.315666
4084.835811,-536.266849,-1554.432478,10510.924376
4084.836127,383.047749,-518.144159,9104.533087
4084.836442,1302.362347,1332.370696,7476.080014
4084.836757,995.924147,2294.638420,6661.853478
4084.837072,689.485948,2516.700203,6365.771101
4084.837388,0.000000,1554.432478,7476.080014
4084.837703,-536.266849,740.205942,8734.430116
4084.838018,-1302.362347,-740.205942,10436.903782
4084.838333,-1685.410096,-1628.453072,11399.171507
4084.838649,-2298.286494,-2738.761985,12361.439231
4084.838964,-1225.752797,-2294.638420,11917.315666
4084.839279,0.000000,-1258.350101,10658.965565
4084.839594,536.266849,296.082377,9548.656652
4084.839910,1225.752797,1332.370696,7846.182985
4084.840225,1149.143247,2368.659014,7105.977043
4084.840540,536.266849,3182.885551,6513.812290
4084.840855,76.609550,2220.617826,7994.224174
4084.841171,-689.485948,1184.329507,9400.615463
4084.841486,-1149.143247,-444.123565,10881.027347
4084.841801,-1685.410096,-1776.494261,12213.398043
4084.842116,-1378.971896,-2368.659014,12509.480420
4084.842432,-689.485948,-1628.453072,12361.439231
4084.842747,306.438199,-518.144159,10955.047942
4084.843062,1762.019645,1036.288319,9548.656652
4084.843377,2604.724693,2516.700203,7624.121203
4084.843693,2374.896044,3108.864956,6957.935855
4084.844008,1838.629195,3182.885551,6735.874072
4084.844323,995.924147,2294.638420,7772.162391
4084.844638,0.000000,1036.288319,9474.636058
4084.844954,-1072.533697,-370.102971,11695.253884
4084.845269,-1378.971896,-2220.617826,12361.439231
4084.845584,-995.924147,-2442.679609,13175.665768
4084.845899,0.000000,-1702.473667,12731.542202
4084.846215,842.705048,-370.102971,11103.089130
4084.846530,1685.410096,666.185348,9474.636058
4084.846845,2451.505594,2442.679609,7846.182985
4084.847160,2604.724693,3256.906145,6883.915261
4084.847476,1608.800546,2886.803174,6587.832884
4084.847791,1149.143247,2220.617826,8068.244768
4084.848106,612.876398,888.247130,9400.615463
4084.848421,0.000000,-592.164754,11029.068536
4084.848737,-919.314598,-1850.514855,12139.377449
4084.849052,-1072.533697,-1924.535449,12287.418637
4084.849367,-612.876398,-2072.576638,12139.377449
4084.849682,689.485948,-592.164754,10881.027347
4084.849998,1378.971896,296.082377,9030.512492
4084.850313,2528.115143,1332.370696,7698.141797
4084.850628,1302.362347,2368.659014,6735.874072
4084.850943,766.095498,2442.679609,7105.977043
4084.851259,0.000000,1480.411884,8364.327145
4084.851574,-766.095498,-0.000000,9400.615463
4084.851889,-1225.752797,-962.267725,11103.089130
4084.852204,-1608.800546,-2220.617826,12065.356855
4084.852520,-1378.971896,-1702.473667,11843.295072
4084.852835,-766.095498,-1628.453072,11177.109724
4084.853150,-229.828649,-592.164754,9918.759623
4084.853465,842.705048,296.082377,8438.347739
4084.853781,995.924147,1554.432478,7254.018232
4084.854096,536.266849,1998.556043,6661.853478
4084.854411,0.000000,1776.494261,6513.812290
4084.854726,-536.266849,962.267725,8142.265362
4084.855042,-1455.581446,-0.000000,9474.636058
4084.855357,-2298.286494,-1332.370696,11177.109724
4084.855672,-2528.115143,-2368.659014,11991.336260
4084.855987,-2451.505594,-2738.761985,12509.480420
4084.856303,0.000000,-1480.411884,11251.130318
4084.856618,306.438199,-1110.308913,9696.697840
4084.856933,1608.800546,962.267725,8216.285956
4084.857248,2221.676944,2146.597232,6883.915261
4084.857564,1685.410096,3034.844362,6291.750507
4084.857879,689.485948,2664.741391,6809.894666
4084.858194,306.438199,1554.432478,8142.265362
4084.858509,-536.266849,-0.000000,9474.636058
4084.858825,-1532.190996,-1332.370696,11251.130318
4084.859140,-2068.457845,-2516.700203,12287.418637
4084.859455,-1685.410096,-2886.803174,12583.501014
4084.859770,-229.828649,-1850.514855,11843.295072
4084.860086,383.047749,-888.247130,10584.944971
4084.860401,1608.800546,740.205942,8734.430116
4084.860716,1762.019645,1554.432478,7846.182985
4084.861031,1915.238745,2664.741391,7105.977043
4084.861347,1302.362347,2812.782580,7328.038826
4084.861662,612.876398,1998.556043,8660.409521
4084.861977,-229.828649,518.144159,10288.862594
4084.862292,-689.485948,-740.205942,11769.274478
4084.862608,-995.924147,-2294.638420,12731.542202
4084.862923,-459.657299,-2072.576638,13175.665768
4084.863238,229.828649,-1702.473667,11991.336260
4084.863553,1302.362347,-592.164754,10510.924376
4084.863869,2145.067394,1110.308913,8438.347739
4084.864184,2451.505594,2220.617826,7624.121203
4084.864499,1915.238745,2812.782580,7179.997637
4084.864814,1149.143247,2146.597232,6957.935855
4084.865129,689.485948,1184.329507,8438.347739
4084.865445,-153.219100,-222.061783,9770.718434
4084.865760,-1302.362347,-1702.473667,11103.089130
4084.866075,-1532.190996,-2738.761985,12435.459826
4084.866390,-1072.533697,-2442.679609,12139.377449
4084.866705,0.000000,-1776.494261,11769.274478
4084.867020,1072.533697,-592.164754,10214.842000
4084.867336,1991.848295,888.247130,8068.244768
4084.867651,2068.457845,2220.617826,6957.935855
4084.867966,1838.629195,3034.844362,6587.832884
4084.868281,1455.581446,2886.803174,6217.729913
4084.868596,229.828649,1554.432478,8216.285956
4084.868911,-1072.533697,-148.041188,9622.677246
4084.869227,-2221.676944,-1924.535449,11177.109724
4084.869542,-2221.676944,-2516.700203,12435.459826
4084.869857,-1915.238745,-2368.659014,12509.480420
4084.870172,-689.485948,-1628.453072,11695.253884
4084.870487,536.266849,-518.144159,9548.656652
4084.870803,1225.752797,1258.350101,8068.244768
4084.871118,919.314598,2368.659014,6957.935855
4084.871433,919.314598,2664.741391,6513.812290
4084.871748,612.876398,2664.741391,7105.977043
4084.872063,-153.219100,1850.514855,8216.285956
4084.872378,-1608.800546,74.020594,9918.759623
4084.872694,-2374.896044,-1480.411884,11621.233289
4084.873009,-2145.067394,-2294.638420,12065.356855
4084.873324,-2068.457845,-2294.638420,12879.583391
4084.873639,-842.705048,-1332.370696,11621.233289
4084.873954,459.657299,-0.000000,9918.759623
4084.874269,995.924147,1554.432478,8216.285956
4084.874585,1225.752797,2442.679609,7328.038826
4084.874900,689.485948,2960.823768,7105.977043
4084.875215,612.876398,2960.823768,7105.977043
4084.875530,0.000000,1628.453072,8660.409521
4084.875845,-1225.752797,444.123565,10140.821405
4084.876161,-995.924147,-1480.411884,11843.295072
4084.876476,-1838.629195,-2368.659014,12583.501014
4084.876791,-1685.410096,-2072.576638,12509.480420
4084.877106,-536.266849,-1628.453072,11769.274478
4084.877421,919.314598,-222.061783,9844.739029
4084.877736,1915.238745,1036.288319,8142.265362
4084.878052,2221.676944,2664.741391,7031.956449
4084.878367,1991.848295,3256.906145,6439.791695
4084.878682,1225.752797,2738.761985,7105.977043
4084.878997,459.657299,1628.453072,8438.347739
4084.879312,-229.828649,-148.041188,10584.944971
4084.879627,-1072.533697,-1554.432478,11843.295072
4084.879943,-1302.362347,-2368.659014,12435.459826
4084.880258,-766.095498,-2368.659014,12657.521608
4084.880573,-76.609550,-1998.556043,11991.336260
4084.880888,1225.752797,-592.164754,10214.842000
4084.881203,2221.676944,1332.370696,8586.388927
4084.881518,2451.505594,2664.741391,7105.977043
4084.881834,2145.067394,3330.926739,6661.853478
4084.882149,1608.800546,2368.659014,7105.977043
4084.882464,1378.971896,1702.473667,8438.347739
4084.882779,-229.828649,-0.000000,10214.842000
4084.883094,-842.705048,-1628.453072,11769.274478
4084.883410,-842.705048,-2442.679609,12879.583391
4084.883725,-766.095498,-2960.823768,12065.356855
4084.884040,153.219100,-1998.556043,11399.171507
4084.884355,1149.143247,-592.164754,9844.739029
4084.884670,1838.629195,814.226536,8216.285956
4084.884985,1915.238745,1702.473667,7328.038826
4084.885301,1378.971896,2442.679609,6587.832884
4084.885616,766.095498,1998.556043,7254.018232
4084.885931,0.000000,962.267725,8660.409521
4084.886246,-1225.752797,-370.102971,10066.800811
4084.886561,-1838.629195,-1702.473667,11547.212695
4084.886876,-1915.238745,-3034.844362,12361.439231
4084.887192,-919.314598,-2812.782580,12213.398043
4084.887507,153.219100,-1702.473667,10955.047942
4084.887822,766.095498,-148.041188,9474.636058
4084.888137,1455.581446,1332.370696,7846.182985
4084.888452,1378.971896,1924.535449,7105.977043
4084.888768,842.705048,2294.638420,6661.853478
4084.889083,229.828649,1480.411884,7105.977043
4084.889398,-383.047749,-0.000000,8808.450710
4084.889713,-1532.190996,-1406.391290,10066.800811
4084.890028,-1991.848295,-2664.741391,11251.130318
4084.890343,-1762.019645,-3330.926739,12361.439231
4084.890659,-1532.190996,-2294.638420,11843.295072
4084.890974,0.000000,-1258.350101,11029.068536
4084.891289,919.314598,-0.000000,9178.553681
4084.891604,1685.410096,1480.411884,7846.182985
4084.891919,1608.800546,2516.700203,7031.956449
4084.892234,689.485948,3034.844362,6513.812290
4084.892550,383.047749,2220.617826,7624.121203
4084.892865,-229.828649,740.205942,9178.553681
4084.893180,-919.314598,-222.061783,11103.089130
4084.893495,-1915.238745,-1628.453072,12287.418637
4084.893810,-1762.019645,-2516.700203,12435.459826
4084.894125,-766.095498,-1850.514855,12065.356855
4084.894441,383.047749,-888.247130,10732.986159
4084.894756,1532.190996,-0.000000,9030.512492
4084.895071,1915.238745,1850.514855,7772.162391
4084.895386,1838.629195,2664.741391,7031.956449
4084.895701,1608.800546,2812.782580,6957.935855
4084.896017,766.095498,2072.576638,7920.203579
4084.896332,0.000000,1036.288319,9474.636058
4084.896647,-995.924147,-222.061783,10510.924376
4084.896962,-1455.581446,-1776.494261,12435.459826
4084.897277,-1149.143247,-2368.659014,12805.562797
4084.897592,-689.485948,-1998.556043,12435.459826
4084.897908,612.876398,-518.144159,11103.089130
4084.898223,1532.190996,814.226536,9178.553681
4084.898538,1915.238745,2220.617826,7994.224174
4084.898853,1915.238745,3034.844362,6957.935855
4084.899168,1302.362347,2960.823768,6513.812290
4084.899483,766.095498,1998.556043,7624.121203
4084.899799,0.000000,740.205942,9696.697840
4084.900114,-1378.971896,-666.185348,11843.295072
4084.900429,-1608.800546,-1776.494261,11843.295072
4084.900744,-1302.362347,-2294.638420,12583.501014
4084.901059,-689.485948,-1998.556043,12065.356855
4084.901375,459.657299,-962.267725,10436.903782
4084.901690,1455.581446,666.185348,8586.388927
4084.902005,2068.457845,1924.535449,7772.162391
4084.902320,1838.629195,3034.844362,6735.874072
4084.902635,919.314598,3182.885551,6291.750507
4084.902950,76.609550,2146.597232,7402.059420
4084.903266,-612.876398,444.123565,9474.636058
4084.903581,-1685.410096,-888.247130,11473.192101
4084.903896,-2068.457845,-1998.556043,12361.439231
4084.904211,-2221.676944,-2664.741391,12805.562797
4084.904526,-1378.971896,-1924.535449,12287.418637
4084.904841,-306.438199,-814.226536,10436.903782
4084.905157,0.000000,888.247130,9104.533087
4084.905472,1225.752797,1850.514855,7476.080014
4084.905787,766.095498,2960.823768,6661.853478
4084.906102,459.657299,3330.926739,6439.791695
4084.906417,-153.219100,2368.659014,7846.182985
4084.906733,-842.705048,-0.000000,9548.656652
4084.907048,-1762.019645,-1110.308913,11029.068536
4084.907363,-2681.334243,-2368.659014,12361.439231
4084.907678,-1991.848295,-2368.659014,12805.562797
4084.907993,-1149.143247,-1850.514855,11843.295072
4084.908308,76.609550,-1332.370696,10510.924376
4084.908624,1302.362347,370.102971,8956.491898
4084.908939,2145.067394,1850.514855,7105.977043
4084.909254,1838.629195,2886.803174,6513.812290
4084.909569,1072.533697,3034.844362,6365.771101
4084.909884,612.876398,1998.556043,7846.182985
4084.910199,0.000000,666.185348,9474.636058
4084.910515,-1149.143247,-1332.370696,11177.109724
4084.910830,-1378.971896,-2590.720797,12731.542202
4084.911145,-995.924147,-2664.741391,12879.583391
4084.911460,0.000000,-1924.535449,11843.295072
4084.911775,1225.752797,-666.185348,10807.006753
4084.912090,2145.067394,1036.288319,8438.347739
4084.912406,2604.724693,1924.535449,7550.100608
4084.912721,2757.943793,2516.700203,6957.935855
4084.913036,2068.457845,2738.761985,6809.894666
4084.913351,1072.533697,1554.432478,7772.162391
4084.913666,0.000000,518.144159,9030.512492
4084.913982,-689.485948,-1036.288319,11621.233289
4084.914297,-919.314598,-2220.617826,12287.418637
4084.914612,-1149.143247,-2590.720797,12879.583391
4084.914927,-536.266849,-1924.535449,12509.480420
4084.915242,842.705048,-1110.308913,10881.027347
4084.915557,1608.800546,666.185348,9178.553681
4084.915873,2298.286494,1554.432478,7994.224174
4084.916188,1838.629195,2294.638420,7031.956449
4084.916503,1302.362347,2516.700203,7476.080014
4084.916818,612.876398,1998.556043,8216.285956
4084.917133,-383.047749,518.144159,9548.656652
4084.917448,-1072.533697,-888.247130,10807.006753
4084.917764,-1532.190996,-2368.659014,12065.356855
4084.918079,-1762.019645,-2516.700203,12213.398043
4084.918394,-1225.752797,-2368.659014,11991.336260
4084.918709,0.000000,-1332.370696,10362.883188
4084.919024,842.705048,-0.000000,8882.471304
4084.919340,1072.533697,1184.329507,7920.203579
4084.919655,612.876398,1776.494261,7105.977043
4084.919970,536.266849,2368.659014,6735.874072
4084.920285,-306.438199,1110.308913,7846.182985
4084.920600,-995.924147,222.061783,9474.636058
4084.920915,-1991.848295,-814.226536,10658.965565
4084.921231,-2068.457845,-1998.556043,11769.274478
4084.921546,-1685.410096,-2220.617826,11991.336260
4084.921861,-919.314598,-2072.576638,11177.109724
4084.922176,153.219100,-962.267725,9918.759623
4084.922491,919.314598,592.164754,9030.512492
4084.922806,1149.143247,1702.473667,7179.997637
4084.923122,842.705048,2220.617826,7031.956449
4084.923437,76.609550,2442.679609,7105.977043
4084.923752,0.000000,814.226536,8216.285956
4084.924067,-919.314598,148.041188,9474.636058
4084.924382,-1838.629195,-1110.308913,10510.924376
4084.924698,-1455.581446,-1850.514855,11843.295072
4084.925013,-1072.533697,-2146.597232,11843.295072
4084.925328,-383.047749,-1702.473667,11177.109724
4084.925643,766.095498,-148.041188,9474.636058
4084.925958,1762.019645,1332.370696,7994.224174
4084.926273,2145.067394,2368.659014,6957.935855
4084.926589,1762.019645,3108.864956,6809.894666
4084.926904,919.314598,2812.782580,7254.018232
4084.927219,459.657299,2072.576638,8734.430116
4084.927534,-383.047749,592.164754,10288.862594
4084.927849,-1225.752797,-1110.308913,11843.295072
4084.928164,-1225.752797,-2146.597232,12657.521608
4084.928480,-1072.533697,-2146.597232,12805.562797
4084.928795,229.828649,-1036.288319,11769.274478
4084.929110,1685.410096,666.185348,9622.677246
4084.929425,2298.286494,1850.514855,8142.265362
4084.929740,2834.553343,3182.885551,7328.038826
4084.930055,2451.505594,3552.988522,7550.100608
4084.930371,1685.410096,3034.844362,7254.018232
4084.930686,766.095498,1850.514855,8808.450710
4084.931001,-383.047749,444.123565,10658.965565
4084.931316,-1149.143247,-888.247130,11843.295072
4084.931631,-1149.143247,-2516.700203,13101.645173
4084.931947,-612.876398,-2294.638420,12805.562797
4084.932262,459.657299,-1480.411884,12213.398043
4084.932577,1455.581446,-0.000000,9770.718434
4084.932892,2298.286494,1480.411884,8364.327145
4084.933207,2451.505594,2442.679609,7179.997637
4084.933522,1608.800546,2812.782580,6957.935855
4084.933838,995.924147,2590.720797,7328.038826
4084.934153,306.438199,1332.370696,8808.450710
4084.934468,-459.657299,-0.000000,10436.903782
4084.934783,-1302.362347,-962.267725,11251.130318
4084.935098,-1685.410096,-2146.597232,12287.418637
4084.935413,-1225.752797,-2442.679609,12583.501014
4084.935729,-459.657299,-1628.453072,11695.253884
4084.936044,766.095498,-296.082377,9844.739029
4084.936359,1072.533697,962.267725,8068.244768
4084.936674,1225.752797,1998.556043,6809.894666
4084.936989,689.485948,2664.741391,6217.729913
4084.937305,0.000000,2146.597232,6957.935855
4084.937620,-995.924147,592.164754,8734.430116
4084.937935,-1302.362347,-888.247130,10214.842000
4084.938250,-2068.457845,-1998.556043,11547.212695
4084.938565,-2145.067394,-2812.782580,12213.398043
4084.938880,-1838.629195,-2368.659014,12139.377449
4084.939196,-842.705048,-1628.453072,10955.047942
4084.939511,229.828649,-444.123565,9104.533087
4084.939826,1225.752797,740.205942,7772.162391
4084.940141,1378.971896,1850.514855,6883.915261
4084.940456,1149.143247,2368.659014,6069.688724
4084.940771,0.000000,1554.432478,7476.080014
4084.941087,-919.314598,518.144159,8290.306550
4084.941402,-1838.629195,-962.267725,9918.759623
4084.941717,-2451.505594,-2220.617826,11399.171507
4084.942032,-2298.286494,-2960.823768,12213.398043
4084.942347,-1838.629195,-2664.741391,12287.418637
4084.942663,-766.095498,-1480.411884,11103.089130
4084.942978,612.876398,-74.020594,9770.718434
4084.943293,1608.800546,1110.308913,7698.141797
4084.943608,1762.019645,2146.597232,7105.977043
4084.943923,1378.971896,2738.761985,6809.894666
4084.944238,919.314598,2516.700203,6957.935855
4084.944554,536.266849,1554.432478,8586.388927
4084.944869,-842.705048,-74.020594,10066.800811
4084.945184,-1378.971896,-1776.494261,11695.253884
4084.945499,-1455.581446,-2590.720797,12361.439231
4084.945814,-689.485948,-2590.720797,12435.459826
4084.946129,229.828649,-1332.370696,11621.233289
4084.946445,1149.143247,-74.020594,9770.718434
4084.946760,2068.457845,1850.514855,8438.347739
4084.947075,2221.676944,2516.700203,7031.956449
4084.947390,1991.848295,3108.864956,6587.832884
4084.947705,1762.019645,2664.741391,7698.141797
4084.948020,1225.752797,1924.535449,9104.533087
4084.948336,0.000000,-0.000000,11177.109724
4084.948651,-459.657299,-1184.329507,12583.501014
4084.948966,-689.485948,-2072.576638,12879.583391
4084.949281,0.000000,-2294.638420,13101.645173
4084.949596,995.924147,-1480.411884,11917.315666
4084.949912,2145.067394,370.102971,9770.718434
4084.950227,2604.724693,2146.597232,7846.182985
4084.950542,2298.286494,2442.679609,7105.977043
4084.950857,2374.896044,2886.803174,6735.874072
4084.951172,1302.362347,2368.659014,7402.059420
4084.951487,459.657299,1184.329507,9104.533087
4084.951803,-459.657299,-296.082377,10658.965565
4084.952118,-1378.971896,-1776.494261,11917.315666
4084.952433,-1378.971896,-2738.761985,12435.459826
4084.952748,-766.095498,-2146.597232,12213.398043
4084.953063,459.657299,-1258.350101,11325.150913
4084.953378,1455.581446,-0.000000,9474.636058
4084.953694,2374.896044,1850.514855,8142.265362
4084.954009,1838.629195,2516.700203,6809.894666
4084.954324,689.485948,2516.700203,6661.853478
4084.954639,306.438199,2146.597232,7476.080014
4084.954954,-459.657299,814.226536,8956.491898
4084.955270,-1532.190996,-666.185348,10140.821405
4084.955585,-2221.676944,-2146.597232,11769.274478
4084.955900,-2374.896044,-2664.741391,12213.398043
4084.956215,-1838.629195,-2368.659014,11917.315666
4084.956530,-842.705048,-1406.391290,10807.006753
4084.956845,0.000000,296.082377,9474.636058
4084.957161,1608.800546,666.185348,7476.080014
4084.957476,995.924147,2368.659014,6957.935855
4084.957791,459.657299,3182.885551,6365.771101
4084.958106,-153.219100,2368.659014,7031.956449
4084.958421,-842.705048,1258.350101,8734.430116
4084.958736,-1915.238745,-518.144159,10140.821405
4084.959052,-2145.067394,-1924.535449,11769.274478
4084.959367,-1991.848295,-2368.659014,12213.398043
4084.959682,-1532.190996,-2220.617826,11843.295072
4084.959997,-459.657299,-1332.370696,10288.862594
4084.960312,612.876398,222.061783,9474.636058
4084.960627,1072.533697,1924.535449,7772.162391
4084.960943,1149.143247,2442.679609,6957.935855
4084.961258,612.876398,2960.823768,6587.832884
4084.961573,229.828649,2220.617826,7476.080014
4084.961888,-306.438199,1184.329507,8882.471304
4084.962203,-1225.752797,-148.041188,11103.089130
4084.962519,-2145.067394,-1850.514855,11917.315666
4084.962834,-1608.800546,-2072.576638,12657.521608
4084.963149,-459.657299,-2072.576638,12139.377449
4084.963464,766.095498,-1184.329507,10955.047942
4084.963779,1915.238745,814.226536,9622.677246
4084.964094,2604.724693,1998.556043,7846.182985
4084.964410,2451.505594,3108.864956,7031.956449
4084.964725,1991.848295,3256.906145,6957.935855
4084.965040,1762.019645,1998.556043,8364.327145
4084.965355,766.095498,592.164754,9992.780217
4084.965670,-459.657299,-962.267725,11769.274478
4084.965985,-383.047749,-2516.700203,12435.459826
4084.966300,-536.266849,-2738.761985,12953.603985
4084.966616,536.266849,-2220.617826,12805.562797
4084.966931,1225.752797,-1036.288319,11251.130318
4084.967246,2145.067394,666.185348,9178.553681
4084.967561,2834.553343,1998.556043,7698.141797
4084.967876,2757.943793,2368.659014,6957.935855
4084.968191,2451.505594,2368.659014,6587.832884
4084.968506,1532.190996,1480.411884,8068.244768
4084.968822,459.657299,296.082377,9474.636058
4084.969137,-689.485948,-1110.308913,11251.130318
4084.969452,-1149.143247,-1998.556043,11769.274478
4084.969767,-842.705048,-3034.844362,12879.583391
4084.970082,-689.485948,-2368.659014,12287.418637
4084.970397,383.047749,-1110.308913,10214.842000
4084.970712,1225.752797,222.061783,8882.471304
4084.971028,1302.362347,1406.391290,7105.977043
4084.971343,1225.752797,1924.535449,6217.729913
4084.971658,0.000000,1998.556043,6587.832884
4084.971973,-229.828649,962.267725,7698.141797
4084.972288,-919.314598,-370.102971,9252.574275
4084.972603,-1762.019645,-1406.391290,10732.986159
4084.972918,-2221.676944,-2442.679609,12065.356855
4084.973234,-2221.676944,-2812.782580,11843.295072
4084.973549,-1225.752797,-1702.473667,10807.006753
4084.973864,-306.438199,-1036.288319,9548.656652
4084.974179,766.095498,148.041188,8068.244768
4084.974494,995.924147,1184.329507,7031.956449
4084.974809,459.657299,2294.638420,6365.771101
4084.975124,0.000000,2442.679609,6513.812290
4084.975440,-766.095498,1332.370696,7920.203579
4084.975755,-1532.190996,-296.082377,9474.636058
4084.976070,-2451.505594,-1924.535449,11177.109724
4084.976385,-2681.334243,-2220.617826,11621.233289
4084.976700,-2221.676944,-2146.597232,12435.459826
4084.977015,-1149.143247,-1628.453072,11695.253884
4084.977330,229.828649,-666.185348,10288.862594
4084.977646,1072.533697,1406.391290,8660.409521
4084.977961,1378.971896,2442.679609,7105.977043
4084.978276,842.705048,3478.967927,6661.853478
4084.978591,612.876398,3404.947333,6809.894666
4084.978906,0.000000,2146.597232,8438.347739
4084.979221,-1302.362347,444.123565,10140.821405
4084.979536,-1532.190996,-518.144159,11695.253884
4084.979852,-2221.676944,-2072.576638,12953.603985
4084.980167,-1762.019645,-2146.597232,12953.603985
4084.980482,-383.047749,-1332.370696,11917.315666
4084.980797,919.314598,-74.020594,10510.924376
4084.981112,1685.410096,1776.494261,8586.388927
4084.981427,2451.505594,3552.988522,7550.100608
4084.981742,2374.896044,4071.132681,6809.894666
4084.982058,1762.019645,3627.009116,6809.894666
4084.982373,995.924147,2368.659014,8364.327145
4084.982688,229.828649,592.164754,10066.800811
4084.983003,-689.485948,-1332.370696,11991.336260
4084.983318,-919.314598,-2072.576638,13397.727550
4084.983633,-536.266849,-2294.638420,13175.665768
4084.983948,153.219100,-1480.411884,12287.418637
4084.984264,1455.581446,74.020594,10362.883188
4084.984579,2757.943793,1480.411884,8808.450710
4084.984894,3064.381992,2368.659014,7476.080014
4084.985209,2528.115143,3034.844362,6735.874072
4084.985524,2221.676944,2960.823768,6883.915261
4084.985839,1608.800546,2146.597232,8068.244768
4084.986154,612.876398,370.102971,9918.759623
4084.986469,-383.047749,-1036.288319,11547.212695
4084.986785,-536.266849,-2220.617826,12583.501014
4084.987100,-612.876398,-2368.659014,12657.521608
4084.987415,306.438199,-1850.514855,11695.253884
4084.987730,1225.752797,-740.205942,10066.800811
4084.988045,2068.457845,814.226536,8512.368333
4084.988360,1302.362347,1776.494261,7105.977043
4084.988675,1149.143247,2516.700203,6513.812290
4084.988991,995.924147,2146.597232,6513.812290
4084.989306,306.438199,592.164754,7994.224174
4084.989621,-766.095498,-444.123565,9696.697840
4084.989936,-1608.800546,-1480.411884,10881.027347
4084.990251,-2298.286494,-2368.659014,11917.315666
4084.990566,-1685.410096,-2590.720797,11843.295072
4084.990881,-919.314598,-1850.514855,11029.068536
4084.991197,306.438199,-666.185348,9918.759623
4084.991512,383.047749,-148.041188,8068.244768
4084.991827,459.657299,1258.350101,7328.038826
4084.992142,229.828649,2368.659014,6735.874072
4084.992457,-689.485948,1702.473667,7031.956449
4084.992772,-1455.581446,740.205942,8290.306550
4084.993087,-1915.238745,-666.185348,10066.800811
4084.993403,-2145.067394,-1924.535449,11103.089130
4084.993718,-2298.286494,-2812.782580,11695.253884
4084.994033,-1991.848295,-2738.761985,12065.356855
4084.994348,-995.924147,-1924.535449,10732.986159
4084.994663,383.047749,-592.164754,9400.615463
4084.994978,995.924147,1036.288319,8142.265362
4084.995293,1608.800546,1628.453072,6883.915261
4084.995609,919.314598,2368.659014,6735.874072
4084.995924,919.314598,2220.617826,7476.080014
4084.996239,-153.219100,814.226536,8586.388927
4084.996554,-1378.971896,-222.061783,10288.862594
4084.996869,-1915.238745,-1998.556043,11547.212695
4084.997184,-1991.848295,-2738.761985,12583.501014
4084.997499,-1532.190996,-2442.679609,12879.583391
4084.997815,0.000000,-1480.411884,11473.192101
4084.998130,842.705048,-370.102971,9622.677246
4084.998445,2145.067394,1480.411884,8290.306550
4084.998760,2451.505594,2516.700203,7328.038826
4084.999075,2068.457845,2812.782580,6957.935855
4084.999390,1455.581446,2294.638420,7402.059420
4084.999705,383.047749,1406.391290,9030.512492
4085.000021,0.000000,-148.041188,10658.965565
4085.000336,-766.095498,-1332.370696,12139.377449
4085.000651,-919.314598,-2368.659014,13101.645173
4085.000966,-536.266849,-2146.597232,12657.521608
4085.001281,612.876398,-1258.350101,11843.295072
4085.001596,1762.019645,-0.000000,9918.759623
4085.001911,2604.724693,1628.453072,8364.327145
4085.002227,2298.286494,2590.720797,7254.018232
4085.002542,1991.848295,3034.844362,7105.977043
4085.002857,1532.190996,2590.720797,7550.100608
4085.003172,995.924147,1702.473667,8882.471304
4085.003487,153.219100,-0.000000,10362.883188
4085.003802,-842.705048,-1258.350101,11843.295072
4085.004117,-1149.143247,-2072.576638,12583.501014
4085.004433,-229.828649,-2072.576638,12287.418637
4085.004748,383.047749,-1332.370696,10881.027347
4085.005063,1532.190996,666.185348,9400.615463
4085.005378,1685.410096,1850.514855,7624.121203
4085.005693,1991.848295,2738.761985,6439.791695
4085.006008,1455.581446,2738.761985,6587.832884
4085.006323,306.438199,2072.576638,7105.977043
4085.006639,153.219100,814.226536,8734.430116
4085.006954,-995.924147,-518.144159,10066.800811
4085.007269,-1608.800546,-1924.535449,11621.233289
4085.007584,-1991.848295,-2368.659014,12435.459826
4085.007899,-1762.019645,-2072.576638,12139.377449
4085.008214,-306.438199,-962.267725,10955.047942
4085.008529,612.876398,592.164754,9104.533087
4085.008845,1685.410096,1924.535449,7550.100608
4085.009160,1378.971896,2738.761985,6661.853478
4085.009475,0.000000,2886.803174,6809.894666
4085.009790,-383.047749,1998.556043,7698.141797
4085.010105,-1302.362347,1184.329507,9474.636058
4085.010420,-1915.238745,-740.205942,10955.047942
4085.010735,-2221.676944,-1924.535449,11769.274478
4085.011051,-2604.724693,-2294.638420,12953.603985
4085.011366,-2145.067394,-1924.535449,12287.418637
4085.011681,-919.314598,-1332.370696,10881.027347
4085.011996,306.438199,592.164754,9104.533087
4085.012311,1762.019645,2146.597232,7772.162391
4085.012626,1072.533697,3108.864956,7031.956449
4085.012941,459.657299,3330.926739,6439.791695
4085.013257,0.000000,2294.638420,7624.121203
4085.013572,-383.047749,962.267725,9474.636058
4085.013887,-1608.800546,-444.123565,11177.109724
4085.014202,-2298.286494,-1554.432478,12509.480420
4085.014517,-2068.457845,-2368.659014,12953.603985
4085.014832,-995.924147,-1998.556043,12139.377449
4085.015147,0.000000,-1554.432478,11103.089130
4085.015462,1532.190996,-0.000000,9474.636058
4085.015778,1991.848295,1702.473667,7846.182985
4085.016093,1991.848295,2664.741391,7031.956449
4085.016408,1378.971896,3404.947333,6291.750507
4085.016723,1149.143247,2368.659014,7846.182985
4085.017038,306.438199,888.247130,9178.553681
4085.017353,-306.438199,-814.226536,10955.047942
4085.017668,-689.485948,-2146.597232,11843.295072
4085.017984,-766.095498,-2886.803174,13175.665768
4085.018299,-229.828649,-2442.679609,12583.501014
4085.018614,1072.533697,-1702.473667,11251.130318
4085.018929,1762.019645,-74.020594,9474.636058
4085.019244,2374.896044,1480.411884,7698.141797
4085.019559,2528.115143,2368.659014,7328.038826
4085.019874,1838.629195,2960.823768,6735.874072
4085.020190,1608.800546,1480.411884,7698.141797
4085.020505,229.828649,296.082377,9104.533087
4085.020820,-459.657299,-1258.350101,10881.027347
4085.021135,-612.876398,-2220.617826,11843.295072
4085.021450,-459.657299,-2960.823768,12213.398043
4085.021765,0.000000,-2516.700203,11991.336260
4085.022080,1149.143247,-1332.370696,10584.944971
4085.022396,1915.238745,-74.020594,8882.471304
4085.022711,2221.676944,1110.308913,7476.080014
4085.023026,1838.629195,1776.494261,7105.977043
4085.023341,1455.581446,2368.659014,6291.750507
4085.023656,689.485948,1332.370696,7476.080014
4085.023971,0.000000,-0.000000,8734.430116
4085.024286,-995.924147,-1406.391290,10362.883188
4085.024602,-1149.143247,-2664.741391,11177.109724
4085.024917,-1532.190996,-3034.844362,12065.356855
4085.025232,-995.924147,-2368.659014,11325.150913
4085.025547,229.828649,-1480.411884,10288.862594
4085.025862,689.485948,148.041188,8512.368333
4085.026177,1608.800546,814.226536,7254.018232
4085.026492,1072.533697,1998.556043,6735.874072
4085.026808,0.000000,2220.617826,6661.853478
4085.027123,0.000000,1702.473667,7624.121203
4085.027438,-1378.971896,370.102971,9104.533087
4085.027753,-1532.190996,-1332.370696,10584.944971
4085.028068,-1991.848295,-2072.576638,11399.171507
4085.028383,-2298.286494,-1998.556043,11917.315666
4085.028698,-1302.362347,-1998.556043,11695.253884
4085.029014,-383.047749,-888.247130,10362.883188
4085.029329,229.828649,1258.350101,9178.553681
4085.029644,995.924147,2220.617826,7920.203579
4085.029959,842.705048,2886.803174,6957.935855
4085.030274,383.047749,3108.864956,7105.977043
4085.030589,0.000000,1998.556043,8364.327145
4085.030904,-1149.143247,814.226536,9548.656652
4085.031220,-1762.019645,-148.041188,11251.130318
4085.031535,-2068.457845,-1184.329507,12361.439231
4085.031850,-1302.362347,-1480.411884,12657.521608
4085.032165,-459.657299,-1554.432478,12065.356855
4085.032480,229.828649,-666.185348,10881.027347
4085.032795,1072.533697,1258.350101,9326.594869
4085.033110,1838.629195,2738.761985,7772.162391
4085.033426,1838.629195,3627.009116,7105.977043
4085.033741,1149.143247,3552.988522,7105.977043
4085.034056,919.314598,2516.700203,8586.388927
4085.034371,-229.828649,1332.370696,9992.780217
4085.034686,-1072.533697,-444.123565,11843.295072
4085.035001,-1532.190996,-1702.473667,12731.542202
4085.035316,-1072.533697,-2294.638420,12879.583391
4085.035632,153.219100,-1258.350101,12805.562797
4085.035947,1225.752797,-296.082377,10881.027347
4085.036262,2068.457845,1406.391290,8512.368333
4085.036577,2451.505594,2368.659014,7254.018232
4085.036892,2145.067394,3627.009116,7105.977043
4085.037207,1455.581446,3108.864956,6883.915261
4085.037522,766.095498,2146.597232,8142.265362
4085.037838,76.609550,370.102971,9548.656652
4085.038153,-1072.533697,-1406.391290,11325.150913
4085.038468,-1225.752797,-2738.761985,12361.439231
4085.038783,-766.095498,-2368.659014,12583.501014
4085.039098,0.000000,-1924.535449,11769.274478
4085.039413,1149.143247,-444.123565,10140.821405
4085.039728,2068.457845,740.205942,8068.244768
4085.040044,2681.334243,1924.535449,7179.997637
4085.040359,2145.067394,2516.700203,6291.750507
4085.040674,1302.362347,2516.700203,6365.771101
4085.040989,612.876398,1258.350101,8068.244768
4085.041304,229.828649,-74.020594,9178.553681
4085.041619,-1302.362347,-1554.432478,11177.109724
4085.041934,-1608.800546,-2516.700203,11695.253884
4085.042250,-1302.362347,-2368.659014,12213.398043
4085.042565,-229.828649,-1776.494261,11325.150913
4085.042880,612.876398,-1036.288319,10362.883188
4085.043195,1378.971896,296.082377,8216.285956
4085.043510,1685.410096,1702.473667,7328.038826
4085.043825,1225.752797,2368.659014,6735.874072
4085.044140,459.657299,2220.617826,7031.956449
4085.044455,-536.266849,1258.350101,8734.430116
4085.044771,-1608.800546,-444.123565,9844.739029
4085.045086,-1991.848295,-1776.494261,11177.109724
4085.045401,-1991.848295,-2664.741391,12435.459826
4085.045716,-1915.238745,-2886.803174,12287.418637
4085.046031,-1378.971896,-2294.638420,12065.356855
4085.046346,-229.828649,-962.267725,9992.780217
4085.046661,612.876398,592.164754,7994.224174
4085.046977,1225.752797,1702.473667,7179.997637
4085.047292,766.095498,2294.638420,6661.853478
4085.047607,229.828649,2146.597232,7031.956449
4085.047922,-459.657299,962.267725,8364.327145
4085.048237,-1685.410096,-222.061783,9992.780217
4085.048552,-2451.505594,-1998.556043,11621.233289
4085.048867,-2145.067394,-2590.720797,12361.439231
4085.049183,-1532.190996,-2812.782580,12805.562797
4085.049498,0.000000,-1998.556043,11695.253884
4085.049813,919.314598,-888.247130,10140.821405
4085.050128,2221.676944,814.226536,8364.327145
4085.050443,2298.286494,1702.473667,7698.141797
4085.050758,1915.238745,2664.741391,7105.977043
4085.051073,1225.752797,2368.659014,6957.935855
4085.051389,919.314598,1332.370696,8216.285956
4085.051704,0.000000,-222.061783,9992.780217
4085.052019,-919.314598,-1998.556043,11325.150913
4085.052334,-1302.362347,-2590.720797,12435.459826
4085.052649,-1149.143247,-2664.741391,12435.459826
4085.052964,76.609550,-1998.556043,11843.295072
4085.053279,1762.019645,-518.144159,10140.821405
4085.053595,1991.848295,1036.288319,8512.368333
4085.053910,2298.286494,2368.659014,7179.997637
4085.054225,2145.067394,3108.864956,6883.915261
4085.054540,1378.971896,2664.741391,7328.038826
4085.054855,842.705048,1628.453072,8142.265362
4085.055170,-229.828649,-0.000000,10584.944971
4085.055485,-689.485948,-1110.308913,11695.253884
4085.055801,-1225.752797,-1998.556043,12287.418637
4085.056116,-995.924147,-2220.617826,12435.459826
4085.056431,-153.219100,-1406.391290,11769.274478
4085.056746,1149.143247,-148.041188,9548.656652
4085.057061,1991.848295,1184.329507,7772.162391
4085.057376,1762.019645,2146.597232,6809.894666
4085.057691,1149.143247,2220.617826,6291.750507
4085.058007,1072.533697,1998.556043,6513.812290
4085.058322,0.000000,962.267725,8068.244768
4085.058637,-842.705048,-0.000000,9844.739029
4085.058952,-1762.019645,-1258.350101,11473.192101
4085.059267,-1762.019645,-1850.514855,12435.459826
4085.059582,-995.924147,-1850.514855,11843.295072
4085.059897,0.000000,-962.267725,10955.047942
4085.060213,1225.752797,518.144159,9326.594869
4085.060528,1532.190996,1776.494261,7920.203579
4085.060843,1455.581446,2516.700203,6957.935855
4085.061158,1532.190996,2812.782580,6587.832884
4085.061473,0.000000,2368.659014,7328.038826
4085.061788,-689.485948,1332.370696,8882.471304
4085.062103,-1608.800546,-222.061783,10658.965565
4085.062419,-1991.848295,-1406.391290,11547.212695
4085.062734,-2221.676944,-2368.659014,12583.501014
4085.063049,-1608.800546,-1998.556043,12065.356855
4085.063364,0.000000,-1184.329507,11177.109724
4085.063679,842.705048,370.102971,9548.656652
4085.063994,1532.190996,2146.597232,7624.121203
4085.064309,1302.362347,2812.782580,6661.853478
4085.064625,842.705048,3627.009116,6735.874072
4085.064940,383.047749,3034.844362,7846.182985
4085.065255,-536.266849,1776.494261,9474.636058
4085.065570,-1378.971896,-0.000000,11177.109724
4085.065885,-2298.286494,-1924.535449,12509.480420
4085.066200,-2145.067394,-2442.679609,13249.686362
4085.066515,-1225.752797,-2072.576638,13101.645173
4085.066831,0.000000,-1406.391290,11621.233289
4085.067146,919.314598,370.102971,9918.759623
4085.067461,2068.457845,2072.576638,8068.244768
4085.067776,2451.505594,2886.803174,7105.977043
4085.068091,1685.410096,3182.885551,6365.771101
4085.068406,1149.143247,2368.659014,7105.977043
4085.068721,612.876398,814.226536,8808.450710
4085.069036,-689.485948,-666.185348,10584.944971
4085.069352,-1302.362347,-2072.576638,12139.377449
4085.069667,-1608.800546,-3182.885551,12805.562797
4085.069982,-612.876398,-2886.803174,11917.315666
4085.070297,919.314598,-1998.556043,11621.233289
4085.070612,1532.190996,-444.123565,9474.636058
4085.070927,2298.286494,1258.350101,8068.244768
4085.071242,2374.896044,2294.638420,6957.935855
4085.071557,1991.848295,2812.782580,6365.771101
4085.071872,995.924147,1702.473667,7179.997637
4085.072187,536.266849,518.144159,9030.512492
4085.072503,-306.438199,-888.247130,10658.965565
4085.072818,-766.095498,-2294.638420,11843.295072
4085.073133,-459.657299,-2886.803174,11991.336260
4085.073448,-229.828649,-2664.741391,11769.274478
4085.073763,306.438199,-1480.411884,10807.006753
4085.074078,1378.971896,-296.082377,9400.615463
4085.074393,1608.800546,888.247130,7550.100608
4085.074708,1685.410096,1554.432478,6809.894666
4085.075023,1455.581446,1776.494261,6661.853478
4085.075338,459.657299,1110.308913,7772.162391
4085.075653,-536.266849,-0.000000,9104.533087
4085.075969,-1762.019645,-1406.391290,10584.944971
4085.076284,-1991.848295,-2442.679609,11695.253884
4085.076599,-1685.410096,-2220.617826,12509.480420
4085.076914,-1378.971896,-2368.659014,12139.377449
4085.077229,76.609550,-1332.370696,10732.986159
4085.077544,766.095498,-0.000000,8882.471304
4085.077859,1915.238745,1332.370696,7698.141797
4085.078174,1149.143247,2146.597232,6957.935855
4085.078489,766.095498,2590.720797,6587.832884
4085.078804,0.000000,1628.453072,7328.038826
4085.079120,-995.924147,740.205942,8808.450710
4085.079435,-1685.410096,-666.185348,10658.965565
4085.079750,-2374.896044,-2220.617826,11843.295072
4085.080065,-2451.505594,-2294.638420,11917.315666
4085.080380,-1762.019645,-2146.597232,11695.253884
4085.080695,-459.657299,-1036.288319,10658.965565
4085.081010,1072.533697,444.123565,8586.388927
4085.081325,1302.362347,1924.535449,7402.059420
4085.081640,1149.143247,2664.741391,6809.894666
4085.081955,766.095498,3552.988522,6513.812290
4085.082271,76.609550,2960.823768,7328.038826
4085.082586,-306.438199,1998.556043,9400.615463
4085.082901,-1762.019645,-222.061783,11251.130318
4085.083216,-1991.848295,-1554.432478,12139.377449
4085.083531,-1838.629195,-1924.535449,12731.542202
4085.083846,-1225.752797,-1554.432478,11991.336260
4085.084161,76.609550,-370.102971,11399.171507
4085.084476,1072.533697,1480.411884,9474.636058
4085.084791,2068.457845,2368.659014,7994.224174
4085.085106,1838.629195,3182.885551,7105.977043
4085.085421,1455.581446,3330.926739,7105.977043
4085.085737,995.924147,3034.844362,8216.285956
4085.086052,229.828649,1628.453072,9548.656652
4085.086367,-842.705048,-0.000000,11621.233289
4085.086682,-1072.533697,-1258.350101,12509.480420
4085.086997,-842.705048,-1702.473667,13249.686362
4085.087312,0.000000,-1776.494261,12287.418637
4085.087627,995.924147,-740.205942,11251.130318
4085.087942,1762.019645,1110.308913,9474.636058
4085.088257,2221.676944,2442.679609,7920.203579
4085.088572,2374.896044,3330.926739,7105.977043
4085.088888,1915.238745,3330.926739,7031.956449
4085.089203,1225.752797,2072.576638,8068.244768
4085.089518,459.657299,740.205942,9770.718434
4085.089833,-153.219100,-592.164754,11473.192101
4085.090148,-766.095498,-1924.535449,12287.418637
4085.090463,-689.485948,-2368.659014,12287.418637
4085.090778,0.000000,-1776.494261,11695.253884
4085.091093,689.485948,-666.185348,10362.883188
4085.091408,1302.362347,814.226536,8882.471304
4085.091723,1991.848295,1480.411884,7179.997637
4085.092039,1378.971896,2220.617826,6735.874072
4085.092354,842.705048,2368.659014,6587.832884
4085.092669,153.219100,1110.308913,7476.080014
4085.092984,-612.876398,-222.061783,9178.553681
4085.093299,-1455.581446,-1776.494261,10955.047942
4085.093614,-2298.286494,-2738.761985,12139.377449
4085.093929,-1915.238745,-2516.700203,12065.356855
4085.094244,-1378.971896,-1998.556043,11325.150913
4085.094559,0.000000,-1406.391290,10066.800811
4085.094874,842.705048,148.041188,8808.450710
4085.095190,1225.752797,1554.432478,7402.059420
4085.095505,1072.533697,2220.617826,6735.874072
4085.095820,153.219100,1924.535449,6217.729913
4085.096135,-306.438199,962.267725,7920.203579
4085.096450,-766.095498,-222.061783,9400.615463
4085.096765,-1762.019645,-1776.494261,10807.006753
4085.097080,-2145.067394,-2664.741391,11917.315666
4085.097395,-1225.752797,-3182.885551,12139.377449
4085.097710,-919.314598,-2368.659014,11103.089130
4085.098025,306.438199,-1258.350101,9918.759623
4085.098340,919.314598,-0.000000,8586.388927
4085.098656,995.924147,1184.329507,7550.100608
4085.098971,1302.362347,1776.494261,7105.977043
4085.099286,536.266849,2294.638420,7402.059420
4085.099601,-229.828649,962.267725,8290.306550
4085.099916,-842.705048,-0.000000,9326.594869
4085.100231,-1915.238745,-1628.453072,11399.171507
4085.100546,-1915.238745,-2516.700203,12287.418637
4085.100861,-1455.581446,-3108.864956,12583.501014
4085.101176,-383.047749,-2368.659014,11991.336260
4085.101491,459.657299,-666.185348,10436.903782
4085.101807,1378.971896,962.267725,9104.533087
4085.102122,1915.238745,1850.514855,7846.182985
4085.102437,1762.019645,1924.535449,7179.997637
4085.102752,1149.143247,2220.617826,7179.997637
4085.103067,995.924147,1554.432478,8660.409521
4085.103382,-229.828649,-148.041188,9770.718434
4085.103697,-766.095498,-1332.370696,11177.109724
4085.104012,-1072.533697,-2368.659014,12879.583391
4085.104327,-536.266849,-2664.741391,12583.501014
4085.104642,536.266849,-1480.411884,11843.295072
4085.104958,1608.800546,-222.061783,9918.759623
4085.105273,2834.553343,888.247130,8290.306550
4085.105588,2987.772442,2442.679609,7402.059420
4085.105903,2451.505594,3108.864956,7105.977043
4085.106218,1225.752797,2812.782580,6809.894666
4085.106533,1072.533697,2294.638420,8364.327145
4085.106848,153.219100,592.164754,9918.759623
4085.107163,-919.314598,-1036.288319,11769.274478
4085.107478,-1302.362347,-1998.556043,12435.459826
4085.107793,-1149.143247,-2072.576638,12731.542202
4085.108108,-383.047749,-1702.473667,11769.274478
4085.108424,919.314598,-296.082377,10140.821405
4085.108739,1991.848295,1702.473667,8290.306550
4085.109054,1991.848295,2960.823768,7105.977043
4085.109369,1532.190996,3404.947333,6661.853478
4085.109684,919.314598,3182.885551,7031.956449
4085.109999,0.000000,1850.514855,7846.182985
4085.110314,-1072.533697,148.041188,9844.739029
4085.110629,-2145.067394,-1036.288319,11399.171507
4085.110944,-2604.724693,-2368.659014,12657.521608
4085.111259,-2374.896044,-1850.514855,12953.603985
4085.111575,-1455.581446,-1998.556043,12139.377449
4085.111890,0.000000,-296.082377,9992.780217
4085.112205,919.314598,1554.432478,8068.244768
4085.112520,1072.533697,2664.741391,6957.935855
4085.112835,612.876398,3701.029710,6809.894666
4085.113150,76.609550,3330.926739,6809.894666
4085.113465,-842.705048,2220.617826,8068.244768
4085.113780,-1455.581446,518.144159,9992.780217
4085.114095,-1991.848295,-740.205942,11325.150913
4085.114410,-2068.457845,-1850.514855,11991.336260
4085.114726,-1915.238745,-1998.556043,12805.562797
4085.115041,-995.924147,-1406.391290,11769.274478
4085.115356,306.438199,-222.061783,9992.780217
4085.115671,995.924147,1554.432478,7624.121203
4085.115986,1685.410096,2368.659014,7105.977043
4085.116301,842.705048,3182.885551,6587.832884
4085.116616,383.047749,2738.761985,7105.977043
4085.116931,-383.047749,1850.514855,8438.347739
4085.117246,-1225.752797,370.102971,10362.883188
4085.117561,-1225.752797,-592.164754,11621.233289
4085.117877,-1378.971896,-1924.535449,12657.521608
4085.118192,-1149.143247,-1332.370696,12731.542202
4085.118507,0.000000,-740.205942,11695.253884
4085.118822,1225.752797,-0.000000,10140.821405
4085.119137,2298.286494,1480.411884,8216.285956
4085.119452,2374.896044,2368.659014,7105.977043
4085.119767,1455.581446,3108.864956,7179.997637
4085.120082,1455.581446,2664.741391,7846.182985
4085.120397,842.705048,1258.350101,9104.533087
4085.120712,-766.095498,-370.102971,10658.965565
4085.121027,-1455.581446,-1776.494261,12287.418637
4085.121343,-1455.581446,-2738.761985,12731.542202
4085.121658,-612.876398,-2590.720797,13101.645173
4085.121973,383.047749,-1850.514855,11695.253884
4085.122288,1608.800546,-1036.288319,10362.883188
4085.122603,2604.724693,592.164754,8438.347739
4085.122918,2681.334243,1628.453072,7698.141797
4085.123233,2374.896044,2368.659014,7105.977043
4085.123548,1838.629195,2220.617826,7179.997637
4085.123863,995.924147,1110.308913,8364.327145
4085.124178,306.438199,-222.061783,9844.739029
4085.124494,0.000000,-1924.535449,11177.109724
4085.124809,-306.438199,-3182.885551,12287.418637
4085.125124,0.000000,-3182.885551,11843.295072
4085.125439,612.876398,-2664.741391,10955.047942
4085.125754,1225.752797,-1036.288319,9178.553681
4085.126069,1838.629195,370.102971,7476.080014
4085.126384,1608.800546,1406.391290,7328.038826
4085.126699,995.924147,1628.453072,6291.750507
4085.127014,383.047749,1184.329507,7402.059420
4085.127329,-383.047749,370.102971,8142.265362
4085.127645,-1455.581446,-888.247130,9844.739029
4085.127960,-1991.848295,-2220.617826,10955.047942
4085.128275,-2068.457845,-2590.720797,11399.171507
4085.128590,-1838.629195,-2442.679609,12213.398043
4085.128905,-766.095498,-1480.411884,11103.089130
4085.129220,536.266849,-0.000000,9696.697840
4085.129535,919.314598,1110.308913,7920.203579
4085.129850,689.485948,1776.494261,7179.997637
4085.130165,0.000000,2590.720797,6809.894666
4085.130480,-919.314598,1628.453072,7254.018232
4085.130795,-1532.190996,222.061783,8956.491898
4085.131111,-2068.457845,-1110.308913,10881.027347
4085.131426,-2374.896044,-2368.659014,11029.068536
4085.131741,-2681.334243,-2738.761985,12139.377449
4085.132056,-2145.067394,-1924.535449,12139.377449
4085.132371,-306.438199,-1258.350101,10658.965565
4085.132686,536.266849,444.123565,8882.471304
4085.133001,1915.238745,1776.494261,7624.121203
4085.133316,2298.286494,3182.885551,6809.894666
4085.133631,995.924147,3330.926739,6217.729913
4085.133946,76.609550,2664.741391,7476.080014
4085.134262,-766.095498,1554.432478,8808.450710
4085.134577,-1302.362347,-0.000000,10955.047942
4085.134892,-1685.410096,-1332.370696,12435.459826
4085.135207,-2145.067394,-2072.576638,12657.521608
4085.135522,-1225.752797,-1850.514855,13027.624579
4085.135837,0.000000,-740.205942,11251.130318
4085.136152,995.924147,518.144159,9918.759623
4085.136467,2068.457845,2516.700203,8216.285956
4085.136782,1685.410096,3256.906145,7402.059420
4085.137097,1608.800546,3701.029710,6809.894666
4085.137413,1302.362347,2812.782580,7920.203579
4085.137728,689.485948,1702.473667,9474.636058
4085.138043,-612.876398,222.061783,11251.130318
4085.138358,-459.657299,-814.226536,12065.356855
4085.138673,-459.657299,-1776.494261,13027.624579
4085.138988,459.657299,-1406.391290,12509.480420
4085.139303,1455.581446,-592.164754,11325.150913
4085.139618,2145.067394,1184.329507,9474.636058
4085.139933,2757.943793,2368.659014,7698.141797
4085.140248,2451.505594,2812.782580,6735.874072
4085.140564,1685.410096,3256.906145,6957.935855
4085.140879,842.705048,2442.679609,7846.182985
4085.141194,306.438199,1184.329507,9326.594869
4085.141509,-842.705048,-592.164754,11473.192101
4085.141824,-995.924147,-1702.473667,11843.295072
4085.142139,-1149.143247,-2368.659014,12879.583391
4085.142454,-612.876398,-1776.494261,12435.459826
4085.142769,689.485948,-370.102971,10955.047942
4085.143084,1685.410096,444.123565,8956.491898
4085.143399,2145.067394,1628.453072,7254.018232
4085.143714,2145.067394,2516.700203,6513.812290
4085.144030,1378.971896,2960.823768,6143.709319
4085.144345,306.438199,1924.535449,7105.977043
4085.144660,-536.266849,-0.000000,8956.491898
4085.144975,-1608.800546,-1184.329507,10362.883188
4085.145290,-2374.896044,-2442.679609,11547.212695
4085.145605,-2451.505594,-3034.844362,12139.377449
4085.145920,-1378.971896,-2516.700203,11917.315666
4085.146235,-229.828649,-1184.329507,10732.986159
4085.146550,459.657299,-296.082377,9030.512492
4085.146865,1225.752797,1406.391290,7624.121203
4085.147181,459.657299,2072.576638,6735.874072
4085.147496,0.000000,2368.659014,6365.771101
4085.147811,-536.266849,1776.494261,7994.224174
4085.148126,-1225.752797,666.185348,9252.574275
4085.148441,-1838.629195,-1332.370696,11177.109724
4085.148756,-2374.896044,-2220.617826,11547.212695
4085.149071,-1991.848295,-2590.720797,12361.439231
4085.149386,-1225.752797,-1924.535449,11843.295072
4085.149701,0.000000,-1554.432478,10584.944971
4085.150016,919.314598,148.041188,8882.471304
4085.150332,1532.190996,1258.350101,7328.038826
4085.150647,995.924147,2072.576638,6957.935855
4085.150962,842.705048,1998.556043,6735.874072
4085.151277,0.000000,1258.350101,8216.285956
4085.151592,-842.705048,-222.061783,9252.574275
4085.151907,-1608.800546,-1480.411884,11177.109724
4085.152222,-1838.629195,-2516.700203,12213.398043
4085.152537,-1455.581446,-2886.803174,12583.501014
4085.152852,-536.266849,-2442.679609,11917.315666
4085.153167,766.095498,-1110.308913,10732.986159
4085.153482,1685.410096,296.082377,9030.512492
4085.153798,2451.505594,1850.514855,7550.100608
4085.154113,2068.457845,2516.700203,6809.894666
4085.154428,1378.971896,2368.659014,6957.935855
4085.154743,766.095498,1332.370696,7920.203579
4085.155058,153.219100,-0.000000,9474.636058
4085.155373,-1072.533697,-1480.411884,11769.274478
4085.155688,-1378.971896,-2368.659014,12657.521608
4085.156003,-1225.752797,-2738.761985,12805.562797
4085.156318,0.000000,-2146.597232,11991.336260
4085.156633,1072.533697,-1036.288319,10732.986159
4085.156949,2528.115143,1036.288319,8734.430116
4085.157264,2757.943793,2146.597232,7402.059420
4085.157579,2451.505594,2664.741391,7105.977043
4085.157894,1915.238745,2812.782580,6587.832884
4085.158209,919.314598,2146.597232,7772.162391
4085.158524,383.047749,444.123565,9474.636058
4085.158839,-153.219100,-1110.308913,10955.047942
4085.159154,-842.705048,-2220.617826,11917.315666
4085.159469,-842.705048,-1998.556043,12139.377449
4085.159784,0.000000,-1554.432478,11695.253884
4085.160100,383.047749,-296.082377,9992.780217
4085.160415,1838.629195,962.267725,8068.244768
4085.160730,2298.286494,2220.617826,7179.997637
4085.161045,1532.190996,2812.782580,6661.853478
4085.161360,842.705048,2960.823768,6735.874072
4085.161675,153.219100,1628.453072,8438.347739
4085.161990,-689.485948,296.082377,9844.739029
4085.162305,-1685.410096,-814.226536,11251.130318
4085.162620,-1991.848295,-1554.432478,11843.295072
4085.162935,-1838.629195,-1776.494261,12287.418637
4085.163251,-919.314598,-962.267725,11473.192101
4085.163566,306.438199,-74.020594,9622.677246
4085.163881,612.876398,1702.473667,8290.306550
4085.164196,995.924147,2368.659014,6883.915261
4085.164511,-153.219100,2960.823768,6661.853478
4085.164826,0.000000,2220.617826,6809.894666
4085.165141,-1149.143247,1036.288319,8808.450710
4085.165456,-1838.629195,-0.000000,10584.944971
4085.165771,-2451.505594,-1332.370696,11843.295072
4085.166086,-2834.553343,-2072.576638,12731.542202
4085.166402,-2374.896044,-1702.473667,13175.665768
4085.166717,-766.095498,-1036.288319,11621.233289
4085.167032,536.266849,-0.000000,9992.780217
4085.167347,2145.067394,1998.556043,7846.182985
4085.167662,2221.676944,3034.844362,6735.874072
4085.167977,1838.629195,3997.112087,6143.709319
4085.168292,995.924147,2812.782580,6883.915261
4085.168608,-459.657299,1554.432478,8216.285956
4085.168923,-1225.752797,-0.000000,10510.924376
4085.169238,-1991.848295,-1332.370696,11991.336260
4085.169553,-2451.505594,-2590.720797,13175.665768
4085.169868,-1608.800546,-2368.659014,12953.603985
4085.170183,-459.657299,-1702.473667,11991.336260
4085.170499,919.314598,-592.164754,10510.924376
4085.170814,1685.410096,1480.411884,8512.368333
4085.171129,2451.505594,3256.906145,6957.935855
4085.171444,2145.067394,3701.029710,5995.668130
4085.171759,1762.019645,2812.782580,7105.977043
4085.172074,842.705048,1850.514855,8734.430116
4085.172389,0.000000,-0.000000,10288.862594
4085.172705,-995.924147,-1554.432478,11917.315666
4085.173020,-1149.143247,-2442.679609,12731.542202
4085.173335,-459.657299,-2590.720797,12509.480420
4085.173650,0.000000,-2072.576638,11843.295072
4085.173965,1225.752797,-962.267725,10140.821405
4085.174280,1991.848295,518.144159,8586.388927
4085.174596,2374.896044,1628.453072,7105.977043
4085.174911,1762.019645,2220.617826,6809.894666
4085.175226,919.314598,1850.514855,6883.915261
4085.175541,919.314598,666.185348,8290.306550
4085.175856,-229.828649,-740.205942,9918.759623
4085.176171,-766.095498,-2146.597232,11473.192101
4085.176487,-612.876398,-3108.864956,12065.356855
4085.176802,-536.266849,-2664.741391,11991.336260
4085.177117,76.609550,-2072.576638,11177.109724
4085.177432,1455.581446,-888.247130,9400.615463
4085.177747,2068.457845,518.144159,7920.203579
4085.178062,2298.286494,1406.391290,6661.853478
4085.178377,1455.581446,1924.535449,6291.750507
4085.178693,842.705048,1406.391290,7105.977043
4085.179008,-153.219100,444.123565,8290.306550
4085.179323,-1302.362347,-888.247130,9992.780217
4085.179638,-2298.286494,-2294.638420,11251.130318
4085.179953,-1915.238745,-2960.823768,12139.377449
4085.180268,-1608.800546,-3182.885551,12361.439231
4085.180584,-383.047749,-1924.535449,11103.089130
4085.180899,383.047749,-148.041188,9474.636058
4085.181214,1378.971896,1110.308913,8364.327145
4085.181529,1685.410096,2590.720797,7179.997637
4085.181844,459.657299,3182.885551,6217.729913
4085.182159,0.000000,2368.659014,7105.977043
4085.182474,-689.485948,1406.391290,8660.409521
4085.182790,-1838.629195,-222.061783,10510.924376
4085.183105,-2604.724693,-1406.391290,12361.439231
4085.183420,-2987.772442,-1998.556043,12213.398043
4085.183735,-2451.505594,-2294.638420,12361.439231
4085.184050,-1072.533697,-1184.329507,10955.047942
4085.184365,153.219100,296.082377,9844.739029
4085.184681,842.705048,1628.453072,7994.224174
4085.184996,1225.752797,3034.844362,7179.997637
4085.185311,536.266849,3627.009116,6883.915261
4085.185626,76.609550,2886.803174,7476.080014
4085.185941,76.609550,1924.535449,8882.471304
4085.186256,-1072.533697,296.082377,10807.006753
4085.186571,-1532.190996,-740.205942,11917.315666
4085.186887,-1608.800546,-1776.494261,12879.583391
4085.187202,-995.924147,-1554.432478,12287.418637
4085.187517,0.000000,-666.185348,11473.192101
4085.187832,1149.143247,814.226536,9474.636058
4085.188147,1991.848295,2368.659014,8290.306550
4085.188462,2068.457845,3256.906145,6809.894666
4085.188778,1685.410096,3330.926739,6809.894666
4085.189093,842.705048,2590.720797,7402.059420
4085.189408,76.609550,1850.514855,9474.636058
4085.189723,-766.095498,-0.000000,11177.109724
4085.190038,-1225.752797,-1776.494261,12361.439231
4085.190353,-842.705048,-2220.617826,12953.603985
4085.190668,-306.438199,-1998.556043,12657.521608
4085.190984,1149.143247,-814.226536,11473.192101
4085.191299,2221.676944,888.247130,9474.636058
4085.191614,3217.601092,2664.741391,7698.141797
4085.191929,2681.334243,3182.885551,7328.038826
4085.192244,2298.286494,3627.009116,6439.791695
4085.192559,1608.800546,2368.659014,7105.977043
4085.192875,995.924147,1184.329507,9030.512492
4085.193190,-229.828649,-370.102971,11029.068536
4085.193505,-919.314598,-1480.411884,12139.377449
4085.193820,-1455.581446,-2442.679609,12953.603985
4085.194135,-842.705048,-2368.659014,12583.501014
4085.194450,383.047749,-1554.432478,11251.130318
4085.194766,1532.190996,-0.000000,9104.533087
4085.195081,1762.019645,1480.411884,7624.121203
4085.195396,1762.019645,2442.679609,6883.915261
4085.195711,1532.190996,2812.782580,6217.729913
4085.196026,766.095498,1776.494261,7328.038826
4085.196341,0.000000,666.185348,8882.471304
4085.196656,-842.705048,-1036.288319,10214.842000
4085.196972,-1838.629195,-2220.617826,11695.253884
4085.197287,-1455.581446,-2738.761985,12435.459826
4085.197602,-1378.971896,-2812.782580,11843.295072
4085.197917,-229.828649,-1924.535449,10584.944971
4085.198232,766.095498,-592.164754,9326.594869
4085.198547,919.314598,1036.288319,7624.121203
4085.198863,842.705048,1850.514855,6809.894666
4085.199178,612.876398,1924.535449,6143.709319
4085.199493,-459.657299,962.267725,7402.059420
4085.199808,-689.485948,-296.082377,9030.512492
4085.200123,-1915.238745,-1554.432478,10510.924376
4085.200438,-2451.505594,-2812.782580,11769.274478
4085.200753,-2068.457845,-3182.885551,12287.418637
4085.201069,-306.438199,-2368.659014,11991.336260
4085.201384,-383.047749,-1332.370696,10288.862594
4085.201699,612.876398,-74.020594,9178.553681
4085.202014,1532.190996,1332.370696,7402.059420
4085.202329,1072.533697,1702.473667,7179.997637
4085.202644,766.095498,1924.535449,6957.935855
4085.202960,0.000000,1332.370696,7920.203579
4085.203275,-766.095498,222.061783,9104.533087
4085.203590,-1455.581446,-1406.391290,11251.130318
4085.203905,-2221.676944,-2220.617826,12213.398043
4085.204220,-1685.410096,-2368.659014,12953.603985
4085.204535,-612.876398,-2294.638420,11843.295072
4085.204850,612.876398,-740.205942,10658.965565
4085.205166,1915.238745,592.164754,9178.553681
4085.205481,2374.896044,2294.638420,7550.100608
4085.205796,2298.286494,2738.761985,7179.997637
4085.206111,1685.410096,2738.761985,6883.915261
4085.206426,995.924147,1998.556043,7994.224174
4085.206741,306.438199,592.164754,9474.636058
4085.207057,-612.876398,-1332.370696,11325.150913
4085.207372,-1149.143247,-2146.597232,11991.336260
4085.207687,-842.705048,-2368.659014,12435.459826
4085.208002,0.000000,-2072.576638,11843.295072
4085.208317,995.924147,-666.185348,10732.986159
4085.208632,1762.019645,888.247130,8882.471304
4085.208947,2298.286494,1850.514855,7402.059420
4085.209263,2145.067394,2812.782580,7031.956449
